TimeUS,GyrX,GyrY,GyrZ,AccX,AccY,AccZ
16896873,0.00105668,-0.0006750291,0.0004400752,-0.1336792,-0.1244566,-9.788271
16916303,0.001344703,-0.000632529,0.0005898844,-0.1301688,-0.1292048,-9.788428
16936238,0.001603738,-0.0007781014,0.0005449512,-0.1261414,-0.1315615,-9.793701
16956290,0.001269048,-0.0007186256,0.0005292206,-0.1327264,-0.1353672,-9.795585
16976189,0.0006991493,-0.0006619368,0.0004492141,-0.1353475,-0.1382222,-9.789348
16996564,0.0006319762,-0.0009487676,0.0003875283,-0.1217359,-0.1339498,-9.774875
17016459,0.0007641635,-0.001456968,0.0002471069,-0.1277008,-0.1356724,-9.781838
17036228,0.0004775773,-0.001747599,-6.134935e-05,-0.1355199,-0.1405279,-9.79578
17056272,0.0002104693,-0.001924863,-0.0002597221,-0.1383459,-0.1358978,-9.791782
17076188,0.0003920773,-0.001794858,-0.0002871849,-0.14115,-0.127298,-9.781162
17096577,0.0003786991,-0.001096047,-1.924988e-05,-0.1328499,-0.137375,-9.772864
17116265,0.0004878903,-0.0005632773,0.0004039753,-0.126164,-0.1412609,-9.783571
17136225,0.0003825403,-9.077394e-05,0.0006501802,-0.1336653,-0.1326835,-9.782122
17156242,0.0002224032,-0.0001266663,0.0007618928,-0.1414947,-0.1255202,-9.782579
17176374,0.0002278985,-7.573484e-05,0.000564213,-0.1390363,-0.128225,-9.780173
17196618,0.0001031295,-0.0004642701,0.0003021252,-0.1336317,-0.1348649,-9.780646
17216219,-0.0001843852,-0.0007773685,4.157265e-05,-0.1273435,-0.1330628,-9.776293
17236229,4.312187e-06,-0.001118632,5.965018e-05,-0.1273928,-0.1273219,-9.780012
17256282,0.0003262077,-0.001653463,0.0001738263,-0.1363084,-0.1328983,-9.788134
17276194,0.0005152228,-0.002238694,0.0005346216,-0.1410295,-0.135535,-9.784002
17296585,0.0006686741,-0.002354854,0.0005307281,-0.1371854,-0.1236732,-9.791301
17316225,0.000776829,-0.002039311,0.0003734339,-0.1308567,-0.1239735,-9.779936
17336387,0.0007984216,-0.00208153,0.0002499971,-0.1312412,-0.1292751,-9.778345
17356294,0.001026917,-0.002091,5.2614e-05,-0.13353,-0.1311106,-9.792194
17376197,0.001212339,-0.002045352,1.77389e-05,-0.138073,-0.1315962,-9.789632
17396615,0.001188104,-0.001686101,6.13632e-05,-0.1300901,-0.1234949,-9.781657
17416272,0.001100092,-0.001603005,0.0001333503,-0.1156229,-0.1274459,-9.776146
17436279,0.001096593,-0.001534169,0.0001878529,-0.1236969,-0.1310763,-9.779088
17456237,0.00123825,-0.001268844,0.0002871288,-0.1364728,-0.1267276,-9.790493
17476206,0.001333431,-0.00120847,0.0003671774,-0.1495751,-0.131389,-9.789175
17496805,0.001446545,-0.001064011,0.0003181307,-0.1449581,-0.1313114,-9.778539
17516246,0.00118997,-0.0006192626,0.0002468869,-0.1317349,-0.1195727,-9.77048
17536197,0.0009718929,-0.0005938559,0.0002241653,-0.1310697,-0.1227044,-9.777494
17556233,0.0008013623,-0.0001681931,0.0002827215,-0.125476,-0.1284815,-9.79265
17576224,0.000960835,2.030555e-05,0.0001588144,-0.1209992,-0.1280205,-9.782055
17596557,0.001063555,0.0005828533,-0.0001534478,-0.1343248,-0.1320431,-9.784009
17616277,0.000954028,0.0007484501,-9.723737e-05,-0.1421369,-0.1336691,-9.794771
17636243,0.0007980265,0.0002643396,0.0001034253,-0.1374827,-0.1241728,-9.797697
17656459,0.0008883538,-0.0006515451,0.0003646013,-0.1312228,-0.1163737,-9.796242
17676226,0.0009884785,-0.001037254,0.0003853095,-0.1254343,-0.1107678,-9.786116
17696646,0.001003334,-0.001145417,7.691328e-05,-0.1262691,-0.1139311,-9.784864
17716261,0.0009027467,-0.001489174,-0.0003906531,-0.1278259,-0.1253203,-9.787868
17736237,0.00116898,-0.001900054,-0.0006249512,-0.1456362,-0.1337382,-9.77759
17756266,0.001164053,-0.001883048,-0.0005594217,-0.1458716,-0.1316379,-9.778297
17776216,0.001114172,-0.001478495,-0.0002303384,-0.1470308,-0.1395111,-9.785408
17796651,0.0007398146,-0.000763124,0.0001746248,-0.1323294,-0.1309798,-9.797917
17816489,0.000435383,-0.0002528943,0.0003663122,-0.1049367,-0.1198793,-9.794297
17836285,6.032259e-06,0.0002394054,7.616787e-05,-0.1133172,-0.1227052,-9.783804
17856356,-0.0001718146,0.0006872841,-0.0003395276,-0.1240465,-0.1356689,-9.779302
17876239,-0.0003533533,0.0005034637,-0.0005349506,-0.1245767,-0.1296323,-9.783645
17896634,-0.0003415616,-0.0001089197,-0.0006434589,-0.1166944,-0.1298386,-9.780329
17916310,-0.0004073046,-0.0004239756,-0.0003691605,-0.1220541,-0.138508,-9.777043
17936229,-0.0003399926,-0.0010675,0.0003292332,-0.1299091,-0.1432675,-9.779909
17956272,-0.0001390581,-0.001547028,0.001108654,-0.1381796,-0.1389051,-9.786209
17976443,0.0002594366,-0.001930217,0.00192887,-0.1357492,-0.1323337,-9.79163
17996650,0.0005432219,-0.001921487,0.002718791,-0.1216886,-0.1228271,-9.794879
18016239,0.0008756552,-0.001660734,0.003093744,-0.1157287,-0.1260241,-9.787928
18036220,0.001375548,-0.00141801,0.003085464,-0.1162142,-0.1477799,-9.788052
18056277,0.001698955,-0.0008629284,0.003207584,-0.1302947,-0.1378111,-9.796349
18076226,0.001335917,-0.000857103,0.002773047,-0.1292596,-0.09529871,-9.804791
18096582,0.0008711032,-0.0006309407,0.001243776,-0.1297663,-0.0771791,-9.800024
18116263,0.000846061,-0.001240432,-0.0008876701,-0.1695877,-0.1326846,-9.786766
18136431,0.001256395,-0.001366431,-0.00143383,-0.1902965,-0.1972681,-9.782598
18156291,0.001451383,-0.0007903776,-7.68648e-05,-0.1684568,-0.1449141,-9.792645
18176249,0.001127018,-0.0003092338,0.0003934818,-0.1232488,-0.0740639,-9.798435
18196593,0.0003670373,-0.0002121106,-0.0008887617,-0.1014564,-0.1238021,-9.78296
18216225,0.0001425395,-6.98806e-05,-0.001315029,-0.07677227,-0.1737509,-9.775961
18236211,8.901125e-05,-0.000262846,-0.0008139302,-0.08369241,-0.1096591,-9.789817
18256284,0.0002161485,-0.0003781407,-0.0008414944,-0.1446367,-0.1136283,-9.794141
18276260,0.0003929231,-0.0004982117,-0.0004276079,-0.2037249,-0.1597767,-9.778564
18296822,0.0005084079,-0.000487089,0.0006373684,-0.1861441,-0.1285237,-9.780337
18316274,0.0004555931,-0.0005544408,0.000982263,-0.1101395,-0.1162317,-9.787014
18336287,0.0002584628,-0.000186753,0.0009715571,-0.07642906,-0.1307601,-9.782089
18356276,0.0003347703,-0.0002763846,0.0009941809,-0.07993533,-0.1398256,-9.787008
18376245,0.0006592728,-0.001053437,0.0007252457,-0.1069037,-0.125724,-9.786315
18396647,0.000779421,-0.001102882,-7.786803e-05,-0.1662807,-0.1315666,-9.789835
18416285,0.000596386,-0.0008128622,-0.0004602525,-0.1929114,-0.1438613,-9.783635
18436207,0.0003811059,-0.0006695384,-0.0002767497,-0.1518519,-0.1327755,-9.779737
18456490,9.719648e-05,-0.0005349201,1.904731e-05,-0.10931,-0.1370191,-9.785362
18476269,-0.0001931171,-0.0007584966,0.0002415215,-0.1032224,-0.1512465,-9.797527
18496620,-0.0003448453,-0.0003887983,0.000437983,-0.1131333,-0.1500825,-9.799937
18516278,-0.0003753398,-0.0001995358,0.0003981431,-0.1324996,-0.1358836,-9.781012
18536227,-0.0004565622,-6.596751e-05,4.316365e-06,-0.1583063,-0.1363759,-9.781396
18556273,-0.0005122704,1.806252e-07,8.638994e-06,-0.1585779,-0.1440182,-9.781451
18576287,-0.0004089123,-2.568711e-05,0.0002803468,-0.1267464,-0.1371084,-9.789707
18596611,-0.0001123273,-0.000280992,0.000197916,-0.1132057,-0.1291028,-9.796206
18616476,0.0003868253,-0.0004530038,2.222026e-06,-0.120654,-0.137139,-9.791083
18636246,0.000440255,-0.0003161995,-2.835036e-05,-0.1270761,-0.1280645,-9.788966
18656275,0.0003840291,-2.134102e-05,0.0001194766,-0.1239438,-0.1220741,-9.783879
18676262,0.000243167,-5.77162e-05,0.0003449096,-0.1322241,-0.1387731,-9.782722
18696650,-0.0001177539,0.0001916317,0.0006210331,-0.1293064,-0.1462172,-9.78555
18716271,-0.0002434313,0.0001908485,0.0007410972,-0.125335,-0.1311369,-9.78722
18736252,-0.0004502771,-2.851358e-05,0.0004659297,-0.1390694,-0.1325709,-9.791037
18756308,-0.0004135375,-0.0002538954,0.0004719402,-0.1455354,-0.1407274,-9.801559
18776459,-0.0002964335,-0.0002583863,0.0007024634,-0.1383252,-0.1351223,-9.790048
18796569,0.0001728507,-0.0003183372,0.0007643339,-0.126923,-0.1290694,-9.789865
18816251,0.000377118,-0.0003912954,0.000576203,-0.1347201,-0.1400274,-9.792558
18836231,-0.0002710306,-1.585641e-05,0.0007706056,-0.1322101,-0.1469252,-9.792894
18856271,-0.0005544384,-0.0001579851,0.0008364957,-0.121449,-0.1399655,-9.791955
18876280,-0.0006899574,-0.0004881416,0.0007793721,-0.11873,-0.1408819,-9.788323
18896610,-0.0004380008,-0.0009917405,0.0004171918,-0.1242613,-0.1535507,-9.792018
18916335,0.0001010648,-0.001503387,0.0001809529,-0.117936,-0.1455575,-9.801141
18936476,0.000648064,-0.001789498,0.0001770316,-0.1142135,-0.136634,-9.788218
18956273,0.000808164,-0.001474522,0.0001512188,-0.121991,-0.1392625,-9.792324
18976243,0.0007774354,-0.001329198,0.0001298874,-0.1337765,-0.1416221,-9.793804
18996611,0.0004817183,-0.001039801,-1.854121e-05,-0.1395147,-0.132507,-9.791856
19016263,0.0002340193,-0.0009252132,0.0002283374,-0.1445787,-0.129892,-9.791338
19036250,0.0001137595,-0.00104644,0.0003659776,-0.1521663,-0.1344718,-9.794595
19056292,0.0001059925,-0.001347576,0.0004439759,-0.139351,-0.1408808,-9.791031
19076236,0.0005188133,-0.001225975,0.0002071566,-0.12533,-0.1410533,-9.796515
19096797,0.0006476595,-0.001171221,-6.295629e-05,-0.1211895,-0.1300076,-9.791177
19116253,0.0008812183,-0.001488481,-0.0003561114,-0.1354945,-0.1409237,-9.783579
19136249,0.001124795,-0.001768365,-0.0002739702,-0.1476066,-0.1435873,-9.786022
19156328,0.001229405,-0.00164649,-3.626843e-06,-0.1364005,-0.1336676,-9.794145
19176254,0.001206912,-0.001722614,0.0002052045,-0.1255862,-0.1278941,-9.790048
19196629,0.001009967,-0.001437722,1.160139e-06,-0.114655,-0.1244663,-9.780433
19216268,0.001147265,-0.0007062826,-0.0003294444,-0.1215372,-0.1340956,-9.777498
19236253,0.001304437,-0.0004677078,-0.000395265,-0.125623,-0.1358755,-9.781493
19256489,0.001401673,-0.0003953964,-0.0001251431,-0.1203008,-0.1270555,-9.785328
19276240,0.001249777,-0.0002080514,0.0002400056,-0.1224465,-0.1182768,-9.79495
19296644,0.0009094633,-7.897382e-05,0.000318934,-0.1351313,-0.1256087,-9.78214
19316252,0.0004900762,8.804835e-05,0.000450394,-0.1374988,-0.1347238,-9.77385
19336241,3.127091e-05,0.0004189453,0.000599492,-0.1117173,-0.1458238,-9.7769
19356291,-0.000400699,0.0007566691,0.0004683368,-0.1033367,-0.1425992,-9.789618
19376239,-0.0003902491,0.0008223353,0.0003902761,-0.09703901,-0.148823,-9.792623
19396588,-0.0002061337,0.0003017763,0.0003708237,-0.109809,-0.1369653,-9.787527
19416477,-0.0001448686,0.0001109862,0.0002938776,-0.1301213,-0.1161311,-9.780932
19436245,-0.0001460921,-0.0003727307,-4.096002e-05,-0.1395593,-0.1296075,-9.77916
19456273,-6.589987e-05,-0.0008432715,-0.000253837,-0.1492977,-0.1403714,-9.790949
19476239,-0.0002348799,-0.0007744061,-7.884583e-05,-0.1432183,-0.1381713,-9.795764
19496615,-0.0003970077,-0.001119301,5.512782e-05,-0.1347156,-0.1280205,-9.797291
19516258,-0.0004352182,-0.001466379,0.0001027431,-0.1247699,-0.1230175,-9.791733
19536237,-0.0003203615,-0.001918335,0.0003323207,-0.1289077,-0.1263668,-9.783152
19556274,6.642228e-05,-0.002063331,0.0005539068,-0.1311001,-0.1348655,-9.786412
19576424,0.0005014737,-0.001926634,0.0004145312,-0.1251971,-0.1452214,-9.779969
19596648,0.0006227926,-0.00155768,0.0003431533,-0.1229426,-0.1483094,-9.787644
19616225,0.0007071906,-0.0009425844,0.0004535523,-0.1234068,-0.1354598,-9.796763
19636256,0.0007274989,-3.923118e-05,0.0002932851,-0.1156391,-0.1318894,-9.792945
19656278,0.0005730591,0.0006053623,6.136398e-05,-0.1246646,-0.1241202,-9.784842
19676191,2.624597e-06,0.001035779,0.0001609384,-0.1398493,-0.1274056,-9.773272
19696611,-0.0001831726,0.0003858155,0.000121993,-0.1302411,-0.136886,-9.767926
19716255,-0.0001671304,-0.000693625,8.573473e-05,-0.1121112,-0.1354285,-9.768889
19736409,0.0001720691,-0.001640575,-8.349511e-05,-0.1148791,-0.1373458,-9.772225
19756315,0.0004918123,-0.002010043,-0.0002567637,-0.1346663,-0.1286326,-9.771876
19776221,0.0008377809,-0.002158549,-0.0003981212,-0.1486047,-0.1351856,-9.77145
19796613,0.001065196,-0.001855536,-0.0005067203,-0.1485685,-0.1340175,-9.783501
19816273,0.001247429,-0.00145647,-0.0003145566,-0.1282315,-0.1424131,-9.786926
19836250,0.001513695,-0.001233602,-0.0001490868,-0.114578,-0.1351715,-9.798983
19856328,0.001468326,-0.001497718,-4.962811e-05,-0.1143129,-0.1398339,-9.789705
19876241,0.001173573,-0.001464466,6.118083e-05,-0.127876,-0.1378726,-9.784375
19896814,0.0009296536,-0.001488207,0.0001680726,-0.1369342,-0.1291692,-9.786412
19916292,0.0006196901,-0.001033941,4.455429e-05,-0.1539591,-0.1247506,-9.789146
19936221,0.0004762275,-0.0007232946,6.336203e-06,-0.1500272,-0.1337285,-9.779603
19956308,0.0003020257,-0.000630981,-5.552727e-05,-0.1381865,-0.1261625,-9.77878
19976254,0.0002167449,-0.0004043337,-2.03188e-05,-0.1211022,-0.128543,-9.783161
19996613,0.0002425823,-0.0005495434,0.0001003911,-0.1209728,-0.127283,-9.777605
20016227,0.0002603206,-0.0002364329,0.0003992747,-0.1139356,-0.1316069,-9.773343
20036246,0.0003846218,-0.0002949016,0.0005498009,-0.1110849,-0.1349161,-9.775701
20056498,0.0001939009,-0.0001238401,0.000481481,-0.1237873,-0.1287383,-9.782333
20076265,-5.257482e-05,-6.652597e-05,0.0002749636,-0.1448897,-0.1327915,-9.783249
20096624,-0.0002188053,-0.0002759862,6.387843e-05,-0.1502993,-0.1306665,-9.782081
20116243,-0.0001017618,-0.001004567,6.749156e-05,-0.1460468,-0.1296911,-9.782023
20136242,0.0001897942,-0.001543102,-3.766389e-06,-0.1261135,-0.1424521,-9.780965
20156290,1.367811e-05,-0.001768667,-0.0001593811,-0.1189473,-0.1417375,-9.787636
20176256,-9.907767e-05,-0.001947863,-0.0003357472,-0.1293799,-0.12837,-9.787131
20196656,-0.0002258735,-0.002137227,-0.0003489688,-0.1400634,-0.1208257,-9.785175
20216482,0.004438539,-0.004915535,-0.0003921886,-0.1408998,-0.108957,-9.77502
20236249,0.01258259,-0.01027954,-0.0005217455,-0.1374335,-0.1175944,-9.751583
20256311,0.02235423,-0.01691834,-0.0007942248,-0.1556836,-0.1417638,-9.781513
20276228,0.02902519,-0.02156933,-0.001229207,-0.1600893,-0.1565877,-9.804068
20296713,0.0344307,-0.02531632,-0.001458427,-0.1564499,-0.1644544,-9.786087
20316275,0.03822765,-0.02778015,-0.001602193,-0.1548193,-0.1703439,-9.786931
20336250,0.03892309,-0.02833296,-0.001650028,-0.1668505,-0.1850987,-9.786001
20356336,0.03687513,-0.02711745,-0.001577423,-0.1833812,-0.1841152,-9.781794
20376451,0.03403192,-0.02546818,-0.001465566,-0.1755825,-0.1858334,-9.771379
20396671,0.0332403,-0.02487334,-0.001470953,-0.1642177,-0.1811568,-9.772558
20416262,0.02975733,-0.02225601,-0.001114974,-0.1747824,-0.2154446,-9.819384
20436212,0.0232691,-0.01767139,-0.0008400415,-0.1830301,-0.2008872,-9.784551
20456284,0.01718471,-0.01360271,-0.0005021344,-0.1820687,-0.2158611,-9.801176
20476249,0.01194518,-0.009795936,-0.0001899293,-0.1868638,-0.2033705,-9.783066
20496654,0.007583847,-0.006704953,-8.58132e-05,-0.2076946,-0.1973429,-9.779496
20516241,0.004840576,-0.004545386,-0.0004006928,-0.2382446,-0.1982417,-9.778899
20536464,0.002452821,-0.002694899,-0.0003565916,-0.2331626,-0.1977279,-9.772994
20556282,0.001237639,-0.001612335,-0.0001531599,-0.1940037,-0.202658,-9.792255
20576275,0.0002571548,-0.0008477014,1.663511e-05,-0.1567058,-0.1989952,-9.783203
20596624,-5.555352e-06,-0.0005560139,0.0002077257,-0.1511302,-0.200359,-9.783438
20616223,-0.0001370573,-0.0007241962,0.0004675204,-0.1734683,-0.1975017,-9.785601
20636249,-0.0008498872,-0.00103973,0.0005472267,-0.2082394,-0.1905176,-9.78973
20656274,-0.002073252,-0.0005858263,0.0006325651,-0.25284,-0.1997053,-9.796724
20676279,-0.00561611,0.001982688,0.0008562805,-0.2549098,-0.2100395,-9.805752
20696880,-0.01245356,0.006688068,0.0007835824,-0.2111081,-0.1942101,-9.796466
20716238,-0.01626519,0.009286733,0.0004939141,-0.1598026,-0.1778471,-9.760424
20736263,-0.01234652,0.007079849,0.000105914,-0.1360418,-0.172122,-9.750793
20756290,-0.003947108,0.001422104,-0.0001144841,-0.160884,-0.1829007,-9.771306
20776221,0.001586449,-0.002541848,-0.0003144566,-0.2012647,-0.2008231,-9.802926
20796615,0.001315318,-0.002714829,-0.0002392483,-0.2324262,-0.2028464,-9.800503
20816255,-0.0007458323,-0.001456889,0.0002045155,-0.2323565,-0.190478,-9.770925
20836247,-0.001419477,-0.00119847,0.000470736,-0.1863251,-0.1786293,-9.772665
20856480,-0.0002700983,-0.001872977,0.0004332801,-0.1636304,-0.1864637,-9.779993
20876250,0.001495148,-0.002626326,0.0002671148,-0.1601472,-0.2003641,-9.786071
20896584,0.002208434,-0.002839302,0.0001272816,-0.1810407,-0.1965431,-9.791829
20916263,0.001226496,-0.001880297,2.443764e-05,-0.1943887,-0.1995878,-9.777041
20936224,0.0004009877,-0.000997578,-5.829715e-05,-0.1946893,-0.2029468,-9.775423
20956267,0.0009261518,-0.0008259786,1.437767e-05,-0.1823824,-0.1955372,-9.779409
20976246,0.002351449,-0.00136664,2.651072e-05,-0.1754054,-0.1972173,-9.775651
20996626,0.002410512,-0.001710198,-6.632571e-05,-0.1812274,-0.2006568,-9.784966
21016477,0.001011641,-0.001273829,-7.161274e-05,-0.1936175,-0.1938739,-9.779806
21036280,-0.0004496672,-0.0007995955,-5.496242e-05,-0.2031856,-0.1837479,-9.769691
21056310,0.0004655212,-0.00134686,-0.0002030353,-0.1921053,-0.172776,-9.742692
21076224,0.01049269,-0.007507789,-0.0001222869,-0.2097615,-0.189942,-9.811159
21096691,0.01302934,-0.009694781,-9.473486e-05,-0.1951291,-0.1819956,-9.785989
21116256,0.01190465,-0.009428226,-0.0001144241,-0.1957948,-0.1993657,-9.779871
21136262,0.009254786,-0.007892964,-6.594773e-05,-0.2043659,-0.209008,-9.788677
21156324,0.006120374,-0.005894656,8.966935e-05,-0.1891577,-0.2217836,-9.780581
21176451,0.003610365,-0.004365589,0.0001499461,-0.2116825,-0.2135109,-9.78102
21196627,0.002593497,-0.003407377,0.0002438836,-0.227077,-0.2080165,-9.794396
21216275,0.002654594,-0.002879566,0.0003051784,-0.208738,-0.1984846,-9.782181
21236217,0.00311123,-0.002625639,0.0004091728,-0.1776983,-0.2056787,-9.783765
21256309,0.003180922,-0.002450562,0.0001393482,-0.1617234,-0.2246277,-9.788564
21276237,0.002473776,-0.002449197,-1.729831e-05,-0.1699996,-0.2249283,-9.789001
21296589,0.001385531,-0.00221926,-0.0001569591,-0.1884819,-0.2179939,-9.78687
21316285,0.0006208347,-0.001620474,-0.0003311214,-0.2044877,-0.2070643,-9.783154
21336446,0.0002777787,-0.00155098,-0.0003958037,-0.2147435,-0.2042698,-9.776616
21356299,0.0002527812,-0.001511403,-0.0004264015,-0.2047949,-0.2083375,-9.776395
21376230,0.0002139157,-0.0015265,-0.0001757354,-0.1983973,-0.2104571,-9.785227
21396604,0.0001842477,-0.001629939,5.712377e-05,-0.1966206,-0.2153443,-9.797256
21416320,0.0004198909,-0.001961649,0.000243793,-0.191014,-0.2016363,-9.805531
21436252,0.0006064482,-0.001701918,0.0003696339,-0.1895473,-0.1977379,-9.790533
21456276,0.0009732003,-0.001156291,0.0003501309,-0.1969149,-0.2059785,-9.789849
21476233,0.001124367,-0.0006982482,0.0004645529,-0.2014738,-0.2163154,-9.795199
21496854,0.0009548093,-0.0002485309,0.0006191439,-0.1920625,-0.2101754,-9.797471
21516255,0.0002315231,-8.777389e-05,0.0005422126,-0.1868418,-0.214884,-9.80031
21536250,-0.0003558019,-0.0001699674,0.000377596,-0.1869154,-0.2134169,-9.793566
21556280,-0.0002498865,-0.0005916784,0.000232264,-0.2001911,-0.2105621,-9.784517
21576245,6.449225e-05,-0.001503592,4.458122e-05,-0.210148,-0.2137574,-9.787247
21596610,0.0003618409,-0.001675493,5.418934e-05,-0.2092443,-0.21728,-9.779794
21616254,0.0007713873,-0.0012375,-2.495265e-06,-0.1979162,-0.2070515,-9.775371
21636248,0.001092946,-0.0005201346,0.0001301417,-0.190286,-0.2057078,-9.77275
21656521,0.001176877,0.0003931412,0.0003179564,-0.1825716,-0.1987476,-9.780507
21676206,0.00101054,0.0005497785,0.0004102462,-0.161394,-0.2014772,-9.791587
21696570,0.0004215596,0.0006018798,0.0005624028,-0.1545809,-0.2078745,-9.78949
21716259,0.0001944117,0.0005648283,0.0006931653,-0.168601,-0.219427,-9.78753
21736244,0.0003230551,-0.000239102,0.0006698934,-0.212879,-0.2152741,-9.78063
21756270,0.00101262,-0.000977189,0.0004748441,-0.2385801,-0.2080061,-9.782085
21776259,0.001778695,-0.001557945,0.0003650151,-0.2240283,-0.2128985,-9.788876
21796658,0.002174844,-0.00182576,0.0002660109,-0.1935608,-0.21665,-9.791684
21816505,0.00262421,-0.002428752,1.592897e-05,-0.175493,-0.2238518,-9.791482
21836255,0.002394388,-0.002746297,2.925069e-05,-0.1923889,-0.2302039,-9.786016
21856306,0.001709766,-0.002670328,7.373787e-05,-0.2338997,-0.2168186,-9.7958
21876215,0.001365404,-0.00254799,0.000281446,-0.2387372,-0.216777,-9.789461
21896668,0.0008567941,-0.001913127,0.0004011661,-0.2228898,-0.2200432,-9.781224
21916278,0.0004132167,-0.001596657,0.0005576658,-0.2058381,-0.2269069,-9.784754
21936270,-0.0004573289,-0.00135344,0.0009417874,-0.1997399,-0.22169,-9.790707
21956287,-0.0006497482,-0.001405654,0.001053485,-0.1664679,-0.2163785,-9.793861
21976451,-0.0006469761,-0.00107651,0.0008427539,-0.1410368,-0.2186509,-9.775292
21996562,-8.075585e-05,-0.001465143,0.0004586279,-0.1649162,-0.2262564,-9.779352
22016265,0.0002634426,-0.001635964,0.000144255,-0.2029357,-0.2217312,-9.769355
22036230,0.000510781,-0.001311303,-9.567365e-05,-0.2227474,-0.2124208,-9.778015
22056323,-0.0001348543,-0.001082117,-0.0002861129,-0.2137514,-0.2174528,-9.796733
22076207,-0.001262839,-0.0005187644,-0.000412554,-0.194086,-0.2173353,-9.799747
22096673,-0.001548094,-0.0002023807,-0.0005084664,-0.202176,-0.2109457,-9.807116
22116274,-0.001416911,0.0004513379,-0.0006293824,-0.2195087,-0.2009116,-9.813517
22136410,-0.0009666324,0.000645011,-0.0007353011,-0.2106323,-0.2115372,-9.805373
22156256,-0.0001328313,0.0004728259,-0.0006955756,-0.1933187,-0.2193792,-9.791444
22176228,0.0004741723,-6.713998e-05,-0.000641204,-0.2004525,-0.2200254,-9.786184
22196655,0.0004339598,-0.000394572,-0.0005433444,-0.2150048,-0.2189794,-9.791284
22216285,0.0002744735,-0.001058131,-0.0005423952,-0.2141629,-0.2113316,-9.79307
22236278,0.0001056861,-0.001370903,-0.0002779405,-0.2201903,-0.2056081,-9.789223
22256295,4.783935e-05,-0.001160967,-1.931249e-05,-0.2191535,-0.2055063,-9.787689
22276243,0.0001495622,-0.0007024108,0.0001147881,-0.2028031,-0.2095932,-9.791594
22296826,0.0002132771,-0.000366205,0.0002105964,-0.1718898,-0.2152282,-9.784663
22316255,0.0004567028,-0.0002956682,0.0002475772,-0.1639881,-0.2112378,-9.779109
22336261,0.0004409376,-0.0003010988,0.0001458627,-0.1874423,-0.2111891,-9.785757
22356251,0.0002657778,9.378276e-05,9.350263e-05,-0.2213054,-0.1993804,-9.787925
22376245,-0.0002080524,7.417159e-05,0.0002202353,-0.2347392,-0.2016449,-9.78308
22396613,-0.001012685,2.307561e-05,0.0004442331,-0.2222345,-0.2051772,-9.772271
22416310,-0.001557942,-0.0001711767,0.0004968939,-0.1813788,-0.2055439,-9.773686
22436196,-0.002028732,-0.0006267425,0.0003275498,-0.1500113,-0.208963,-9.779968
22456504,-0.00203179,-0.0008410616,0.0001503302,-0.171973,-0.2117987,-9.782046
22476257,-0.001448498,-0.0006776387,3.790609e-05,-0.2249742,-0.2114996,-9.781159
22496634,-0.0007988051,-0.0004620921,7.428248e-05,-0.2528203,-0.2161404,-9.782054
22516224,-0.0002274148,-0.0004858332,0.000113265,-0.2342287,-0.2216256,-9.773823
22536199,-7.962894e-05,-0.0005434825,0.0001547444,-0.2043221,-0.2119553,-9.79342
22556278,-0.0003400095,-0.0005704593,0.0002914959,-0.1727836,-0.2103935,-9.789899
22576243,-0.000856038,-0.0003659318,0.000436383,-0.1769487,-0.2165246,-9.784027
22596607,-0.001196078,2.212777e-07,0.000380472,-0.1980542,-0.2154801,-9.774768
22616474,-0.001177896,0.0003480592,0.0003868478,-0.215199,-0.2108206,-9.77002
22636231,-0.001109061,0.000292014,0.0004258756,-0.2109612,-0.2043039,-9.774007
22656282,-0.001035544,-0.0001452882,0.0004238598,-0.1952384,-0.2097107,-9.781296
22676272,-0.0007871384,-0.0003316303,0.0004221778,-0.1753778,-0.2088183,-9.78513
22696610,-0.0005091362,2.811214e-05,0.0004501306,-0.1758444,-0.2142823,-9.789853
22716267,-0.0006725511,0.0004304435,0.00029543,-0.1913069,-0.2127708,-9.781316
22736234,-0.0004823629,0.00059784,0.0001103762,-0.2161449,-0.2160128,-9.787432
22756271,-0.0002273852,0.0006695386,0.0001439165,-0.21917,-0.2110671,-9.78609
22776437,0.0001704417,0.0005230955,0.0001049325,-0.2042003,-0.2145452,-9.791576
22796619,0.0008482987,1.024523e-05,6.777827e-05,-0.1887297,-0.2134166,-9.78837
22816247,0.001097463,-0.0006775983,-6.741143e-05,-0.1907157,-0.2065164,-9.791562
22836242,0.0006458175,-0.001017747,-0.000241247,-0.1905047,-0.2121824,-9.773667
22856299,0.0003816269,-0.001130696,-0.0002018818,-0.1937331,-0.2107784,-9.759955
22876217,0.0001454175,-0.001544625,-1.649873e-05,-0.2014972,-0.1982225,-9.770244
22896670,2.355351e-06,-0.00185813,4.211517e-05,-0.1974318,-0.1975454,-9.773455
22916281,-0.0002273977,-0.00121919,8.833607e-05,-0.1969273,-0.2005908,-9.768341
22936446,-7.180509e-06,-0.0003850885,9.924729e-05,-0.2050265,-0.2050776,-9.776745
22956273,0.0002752454,0.0002213411,0.0001239384,-0.2081981,-0.2011335,-9.788428
22976260,0.0005786947,-1.19768e-05,3.086808e-06,-0.2040552,-0.1995819,-9.787543
22996677,0.0008443356,-3.764623e-05,-7.929712e-05,-0.2027025,-0.2045863,-9.78698
23016267,0.0009785503,-0.0004062307,-3.790158e-05,-0.1996625,-0.208799,-9.788621
23036267,0.0008762665,-0.0006628174,9.546775e-05,-0.1934401,-0.2114097,-9.787065
23056281,0.0007154355,-0.0008659653,0.0001994527,-0.1992141,-0.2169712,-9.779723
23076253,0.0004350527,-0.001334387,0.0003708712,-0.1911912,-0.2134936,-9.778897
23096797,0.0002764862,-0.001811867,0.0004414566,-0.184005,-0.2109192,-9.771397
23116283,0.0002432037,-0.001859529,0.0002624289,-0.1826617,-0.2088333,-9.766439
23136220,2.08374e-05,-0.00159307,9.723061e-05,-0.1925892,-0.2121817,-9.783629
23156277,-0.0004117494,-0.001179035,2.093831e-05,-0.2010165,-0.2094794,-9.787393
23176246,-0.0005220458,-0.001386889,-1.247244e-05,-0.1986828,-0.2098711,-9.786638
23196637,-0.0001437434,-0.001892141,1.271063e-05,-0.2015198,-0.21078,-9.793277
23216232,-2.178913e-07,-0.001682833,-0.0001173406,-0.2011034,-0.2111282,-9.787224
23236253,-3.745836e-05,-0.0008197807,-0.0001628697,-0.2025108,-0.2042952,-9.783182
23256488,-0.0003071669,-0.0004617265,3.272226e-05,-0.2066309,-0.2029359,-9.786955
23276263,-0.0001618536,-0.0002037065,-2.343467e-05,-0.2124573,-0.2061023,-9.788271
23296626,-0.0002330632,-0.0004067047,0.0001440625,-0.2057145,-0.2091957,-9.776098
23316253,-0.000256102,-0.0008195425,0.0003894011,-0.1930173,-0.2121515,-9.771622
23336262,-3.368554e-05,-0.0008760947,0.0004194667,-0.1956046,-0.2253963,-9.781237
23356257,0.000203122,-0.000792205,0.0003552286,-0.199367,-0.2282446,-9.779914
23376274,0.0004971907,-0.001305736,0.00016188,-0.1969772,-0.2139997,-9.773995
23396566,0.0005828609,-0.001663067,-5.380097e-05,-0.2030101,-0.2007495,-9.773853
23416491,0.0006338333,-0.002023166,-0.0003347486,-0.2098531,-0.20045,-9.782566
23436257,0.0004655274,-0.001906468,-0.0004214702,-0.198072,-0.2022279,-9.78403
23456281,0.0003128985,-0.001857295,-0.0004427587,-0.1984497,-0.2022294,-9.786818
23476269,0.0001838179,-0.00164909,-0.0003459897,-0.2009722,-0.2088577,-9.78303
23496577,7.853909e-05,-0.001188206,-0.000207006,-0.2113814,-0.2040751,-9.786375
23516269,0.0001420674,-0.0008648793,-0.0001372885,-0.207649,-0.2005708,-9.791117
23536263,0.0003712196,-0.0008178516,1.429351e-05,-0.2009617,-0.2072283,-9.791278
23556319,0.0005029145,-0.0009330197,0.0002188696,-0.1966538,-0.2170026,-9.785527
23576447,0.0005836867,-0.0008330189,0.000364601,-0.1982774,-0.2167612,-9.779811
23596614,0.0008138578,-0.0008435876,0.0005575983,-0.1976363,-0.2127523,-9.77725
23616258,0.001098888,-0.000498482,0.0007758909,-0.2120695,-0.2139155,-9.779676
23636241,0.001535896,-0.0005305067,0.000664564,-0.210001,-0.2126386,-9.784677
23656272,0.001580749,-0.0007981574,0.0004914844,-0.2010667,-0.2147398,-9.787484
23676224,0.00131746,-0.0005376174,0.0002342953,-0.1905477,-0.2086281,-9.783178
23696664,0.001070524,-0.000619908,7.982228e-05,-0.2000195,-0.2139702,-9.787663
23716238,0.0009576071,-0.0005759429,0.0001930879,-0.2051054,-0.2062586,-9.785805
23736475,0.001120626,-0.0007664653,0.0003144782,-0.2060945,-0.2057118,-9.789391
23756303,0.00151596,-0.0009759183,0.0004238197,-0.2050911,-0.2119467,-9.784918
23776233,0.001429625,-0.0008446227,0.0006378945,-0.1984396,-0.2158558,-9.76691
23796599,0.0007315075,-0.0004436518,0.0007460878,-0.1901745,-0.2110665,-9.770844
23816260,0.0001882874,-0.0003908685,0.0008899501,-0.205015,-0.2094219,-9.783781
23836266,-1.449815e-05,-0.0007879899,0.0008851439,-0.2045416,-0.2103968,-9.783367
23856341,1.401658e-05,-0.001060086,0.000690488,-0.1994139,-0.2074016,-9.777271
23876258,0.0002566804,-0.0009447446,0.000387121,-0.1994839,-0.205179,-9.779715
23896821,0.0003553277,-0.0007602131,0.0002192521,-0.2026668,-0.2100389,-9.78688
23916316,0.0005176751,-0.0007497221,5.072129e-05,-0.197042,-0.2127659,-9.791352
23936218,0.0004125307,-0.001024866,0.0001680554,-0.1886599,-0.2159425,-9.781004
23956291,0.000152829,-0.001279605,0.0004316451,-0.191441,-0.2084196,-9.784003
23976237,-0.0001703413,-0.001469771,0.0006536331,-0.1902571,-0.2134882,-9.781962
23996620,-0.0002549124,-0.001233521,0.0005858573,-0.1859235,-0.2117295,-9.779778
24016228,0.0002519278,-0.001492473,0.0003666734,-0.1902404,-0.2041862,-9.788486
24036251,0.0003120238,-0.001599971,0.0003022898,-0.2047989,-0.2094066,-9.796949
24056454,0.0005222672,-0.002164623,0.0002805789,-0.2084804,-0.2087869,-9.788964
24076274,0.000522769,-0.002273716,0.0001316074,-0.2122301,-0.2143413,-9.786769
24096671,0.0003498876,-0.002046953,1.809795e-06,-0.2013466,-0.2141433,-9.794926
24116245,0.0002495348,-0.001900293,0.0001123625,-0.1859257,-0.219197,-9.785973
24136260,0.0005253485,-0.00171217,0.0002072431,-0.1909837,-0.223916,-9.789841
24156285,0.0004549308,-0.001276187,0.0003292414,-0.1998287,-0.2199059,-9.785633
24176283,0.0004031483,-0.0008834395,0.0005242237,-0.2063716,-0.2139828,-9.776828
24196671,0.0003641363,-0.001262536,0.0005556114,-0.2102934,-0.221951,-9.766601
24216490,0.0001293619,-0.001697202,0.0003952371,-0.2042209,-0.2140643,-9.773592
24236247,0.0002753461,-0.002117188,0.0003271448,-0.1993414,-0.2065539,-9.777738
24256286,0.0003318857,-0.001654707,0.0003273208,-0.2052156,-0.2012725,-9.785588
24276255,0.0002928484,-0.001119801,0.0002752733,-0.2031654,-0.2066044,-9.780921
24296650,0.0003342712,-0.00124581,0.000394163,-0.2010452,-0.2136566,-9.772501
24316258,0.000289517,-0.001004265,0.0004001943,-0.1972291,-0.2165336,-9.784136
24336210,0.0002297903,-0.0006201466,0.0004700728,-0.2035114,-0.2173433,-9.783306
24356252,9.086112e-05,-0.000277473,0.0005076681,-0.2117344,-0.2190588,-9.786933
24376435,4.280052e-05,5.030273e-05,0.0004814753,-0.2084996,-0.2207541,-9.79996
24396599,-0.0001115862,0.0003833032,0.0004535646,-0.2077629,-0.2100141,-9.788754
24416314,-0.0001940152,0.0003984472,0.0003916316,-0.1994857,-0.2081676,-9.77698
24436217,-7.650302e-05,0.0001383489,0.0002910261,-0.195408,-0.2076386,-9.779906
24456275,0.0003459854,0.0001546446,0.0003577773,-0.1959179,-0.214803,-9.792854
24476247,0.0003941672,0.0001713019,0.0004090144,-0.2065763,-0.2238945,-9.780602
24496615,0.0002587741,0.0001552681,0.0004780358,-0.2012683,-0.2223919,-9.777555
24516224,0.0002839529,-0.0002465365,0.0002216182,-0.2017351,-0.2271911,-9.774964
24536465,0.0004907488,-0.001243091,-0.0001544728,-0.1942473,-0.2203932,-9.771487
24556273,0.0005815031,-0.001775625,-0.0005645088,-0.1888229,-0.219618,-9.779567
24576251,0.0004335107,-0.002286015,-0.000710913,-0.1874283,-0.2167768,-9.788211
24596613,0.0003717526,-0.002420014,-0.0005919317,-0.2069481,-0.2056331,-9.794065
24616244,0.0004507985,-0.002400009,-0.0005210965,-0.20591,-0.2064293,-9.793986
24636244,0.000738812,-0.002442983,-0.0003663434,-0.203841,-0.2076287,-9.783165
24656313,0.001095478,-0.002469095,-0.0002759925,-0.2037275,-0.2013317,-9.778649
24676216,0.0009751302,-0.00237429,-0.0002940128,-0.2094624,-0.1991604,-9.779113
24696866,0.000830048,-0.002606743,-0.0003564422,-0.2031861,-0.206957,-9.780578
24716256,0.0006018774,-0.002536826,-0.0002363334,-0.1954855,-0.2061326,-9.787373
24736255,0.000195275,-0.002269518,-0.000187955,-0.1876241,-0.2159148,-9.786899
24756306,-5.10605e-05,-0.00173771,-5.897663e-05,-0.1894419,-0.2182878,-9.788671
24776247,8.333655e-05,-0.001320268,-8.022041e-05,-0.2030813,-0.2157818,-9.784184
24796664,0.0006935915,-0.001282048,-4.857778e-05,-0.2083098,-0.2060832,-9.785423
24816258,0.001218203,-0.0008661276,8.055454e-05,-0.2112907,-0.2167532,-9.788153
24836273,0.001481381,-0.0002308664,1.619345e-05,-0.2043995,-0.2254666,-9.78109
24856486,0.001771942,-0.0003662081,-0.0001167465,-0.2036423,-0.221291,-9.784837
24876269,0.001838386,-0.0007192174,-0.0002319831,-0.1952792,-0.2210338,-9.80309
24896600,0.001341154,-0.0009177116,-0.0002578601,-0.1967515,-0.2248116,-9.79141
24916296,0.0006600532,-0.0009390753,-0.0003566638,-0.1982403,-0.2234072,-9.775811
24936255,-6.283326e-05,-0.0009856039,-0.0003928063,-0.1967547,-0.2174522,-9.771288
24956276,-0.0006673677,-0.000737181,-0.0002853942,-0.1925524,-0.2102373,-9.782948
24976238,-0.0009736572,-0.0007252125,-0.0001050049,-0.1971366,-0.2030245,-9.784701
24996602,-0.0008403126,-0.0006330348,1.570733e-05,-0.2018344,-0.201545,-9.786335
25016459,-0.0006021142,-0.0005711921,5.820662e-05,-0.2005676,-0.2041056,-9.787642
25036252,-0.0003971948,-0.000367491,9.502556e-06,-0.1915043,-0.2098728,-9.783391
25056284,-0.0002341543,-0.000414522,0.0001028704,-0.1933364,-0.2105618,-9.786196
25076279,-4.004566e-05,-0.0005400022,3.132256e-05,-0.1982505,-0.2070826,-9.788813
25096650,0.0004024203,-0.0006892539,-0.000107689,-0.1961589,-0.2046561,-9.788081
25116270,0.0007006231,-0.0003656657,-0.0001647383,-0.1949338,-0.2096749,-9.782736
25136239,0.0006473807,0.0001784768,-7.784888e-05,-0.1980302,-0.2040884,-9.790507
25156308,0.0005085938,0.00026264,-5.979475e-05,-0.2007215,-0.2064004,-9.790984
25176434,0.0006218358,-0.0003682605,4.150461e-05,-0.2092411,-0.1928704,-9.788038
25196647,0.0007525788,-0.0004942653,5.113478e-05,-0.2047987,-0.1968741,-9.785189
25216259,0.000742948,-0.0009471782,0.0001174188,-0.1924966,-0.1983388,-9.782215
25236245,0.0006799559,-0.00112929,0.0001858386,-0.1986828,-0.2042852,-9.788012
25256334,0.0003987304,-0.001207033,0.0003770672,-0.1978311,-0.2060989,-9.791986
25276239,9.368741e-05,-0.00135322,0.0002885244,-0.205104,-0.2136004,-9.780886
25296670,-5.005832e-05,-0.001472356,0.0002265777,-0.2042921,-0.2130641,-9.781653
25316294,-0.0006613631,-0.001078545,0.0001177786,-0.2028012,-0.2064633,-9.790552
25336448,-0.0008608222,-0.001310132,8.79067e-05,-0.1953813,-0.2016747,-9.789675
25356289,-0.0008376429,-0.001114424,0.0001092005,-0.1989772,-0.207843,-9.780822
25376249,-0.0007600462,-0.001425154,3.230535e-05,-0.207902,-0.2071204,-9.78768
25396618,-0.0007836629,-0.001706087,0.0001997412,-0.2116286,-0.2101264,-9.792265
25416297,-0.0007422073,-0.001812556,0.0002499774,-0.2064966,-0.2053042,-9.790223
25436254,-0.0006099868,-0.00149357,0.0003235455,-0.1912371,-0.2048925,-9.782618
25456271,-0.0003399347,-0.001046462,0.0003666494,-0.1984683,-0.2033555,-9.784331
25476229,-2.795787e-05,-0.0004298062,0.0003906788,-0.1933004,-0.2029229,-9.77284
25496852,-0.0001645249,-0.0001583817,0.0003897102,-0.1890016,-0.203214,-9.777592
25516293,-0.0003716047,-0.0005045225,0.0004053134,-0.1880992,-0.2028024,-9.78672
25536262,-0.0004887979,-0.0008631002,0.0003982391,-0.1877595,-0.2075424,-9.797577
25556278,-0.0004722624,-0.001032572,0.0002821972,-0.1906485,-0.2065704,-9.792051
25576226,-0.0006789882,-0.001033144,0.0001286606,-0.1994215,-0.2105343,-9.782024
25596616,-0.0004104575,-0.001375416,8.389917e-05,-0.2020929,-0.2048503,-9.778167
25616237,0.0001322143,-0.001545927,0.0001314146,-0.2055268,-0.1977594,-9.772086
25636235,0.0007534961,-0.001493463,3.338898e-05,-0.2116256,-0.1970804,-9.775002
25656543,0.0008155315,-0.001100699,-1.208723e-05,-0.2078926,-0.2021739,-9.776111
25676196,0.0008709606,-0.0004852061,-2.224605e-05,-0.2049518,-0.1994605,-9.783562
25696578,0.0007888154,-3.187767e-05,-0.0001342402,-0.2029826,-0.2025973,-9.79375
25716255,0.0007992625,-0.0002838768,-0.0003557629,-0.2115746,-0.2015024,-9.794407
25736269,0.0008378908,-0.0009377167,-0.0003645595,-0.2177298,-0.2006315,-9.789615
25756261,0.0008126468,-0.001054305,-0.0002591715,-0.2082287,-0.2053394,-9.7847
25776196,0.0005719872,-0.0007619741,-0.0001830301,-0.1979216,-0.2054587,-9.786407
25796566,0.00028469,-0.000349799,5.994529e-05,-0.2000005,-0.2024403,-9.78054
25816485,-0.0002332932,-0.0002443231,0.0001330739,-0.1873017,-0.2071938,-9.778944
25836251,-0.0003563202,1.116127e-05,0.0001087932,-0.1889872,-0.2111476,-9.782893
25856253,-0.0002129793,0.000414638,0.0001255775,-0.2025562,-0.2076372,-9.774721
25876272,0.0001448366,0.0005871207,0.0001853832,-0.1962533,-0.2107012,-9.766854
25896582,0.0002255882,0.0003037434,0.0003017878,-0.1992368,-0.2064891,-9.776965
25916275,0.0004276886,-0.0003323885,0.0005051896,-0.1925313,-0.2076998,-9.78762
25936244,0.0005946473,-0.0009950036,0.0007440507,-0.1957153,-0.2034882,-9.787377
25956257,-0.0001311182,-0.0008846796,0.0009074673,-0.19765,-0.2031102,-9.779943
25976469,-0.0006225694,-0.001087033,0.0007731486,-0.1955363,-0.2111209,-9.779977
25996646,-0.0009512811,-0.0008903467,0.0006306498,-0.1922962,-0.2062745,-9.778048
26016257,-0.0007411966,-0.0005693222,0.0006334672,-0.1942611,-0.2080093,-9.778462
26036219,-0.0004463026,-0.0006457212,0.0005395067,-0.2017245,-0.2128938,-9.768925
26056285,-0.0001869498,-0.0006472308,0.0006077954,-0.2119212,-0.2123272,-9.780064
26076240,-0.0002448347,-0.0003227632,0.0006048409,-0.2089432,-0.2107023,-9.789564
26096631,-4.238585e-05,-0.0002416463,0.0003854355,-0.1983591,-0.2127303,-9.784532
26116228,0.0001023673,-0.0001817413,0.0002434568,-0.1969355,-0.2163722,-9.785617
26136456,0.0002416681,0.0001383664,0.0001274327,-0.2039395,-0.207993,-9.786742
26156288,4.739954e-05,0.000519784,0.0003235079,-0.2034491,-0.2041663,-9.782469
26176263,0.0002198359,0.0001910089,0.0005820532,-0.201644,-0.2045883,-9.776631
26196625,0.0004133183,-0.0004871677,0.0005835732,-0.2050435,-0.2074524,-9.779141
26216234,0.0005647428,-0.001071682,0.000413211,-0.2018141,-0.2099538,-9.783805
26236242,0.0005161666,-0.001579292,0.0005245807,-0.207346,-0.2034085,-9.78152
26256276,0.0007255698,-0.001842625,0.0003836566,-0.2049399,-0.2035287,-9.789566
26276260,0.0005288072,-0.001895253,0.0004334214,-0.195528,-0.2034723,-9.785505
26296869,0.0003002305,-0.001733705,0.0003005399,-0.1909372,-0.2059567,-9.788653
26316260,0.0003008238,-0.001669788,0.0001192509,-0.1942818,-0.2019907,-9.796074
26336233,0.0006458624,-0.001953345,0.0001239415,-0.2003688,-0.2033087,-9.790816
26356291,0.000944165,-0.002271743,0.0002356271,-0.19296,-0.2133134,-9.78413
26376280,0.0007347468,-0.002110142,0.0002369078,-0.1951739,-0.218784,-9.78972
26396646,0.0003836077,-0.001945275,0.000190858,-0.2027596,-0.2101756,-9.777289
26416294,0.0005438908,-0.001799217,6.397668e-05,-0.2164291,-0.2093604,-9.772254
26436248,0.0009525467,-0.001442255,5.665491e-05,-0.2027867,-0.2139564,-9.779395
26456468,0.0006204731,-0.001168395,-4.832714e-05,-0.1959633,-0.2096249,-9.776643
26476226,0.00012923,-0.001162021,6.311048e-05,-0.1945988,-0.2061674,-9.77037
26496559,-0.0001833912,-0.0008108429,0.0001388605,-0.1996557,-0.2101002,-9.783935
26516255,-0.00024348,-0.0006905157,0.0004091473,-0.2037691,-0.2079008,-9.788218
26536228,2.399135e-05,-0.0003938836,0.0005257215,-0.1999605,-0.2075355,-9.787015
26556275,0.0001405491,0.0001534471,0.000599515,-0.1972289,-0.208728,-9.784267
26576228,0.0001032589,0.0003000967,0.0007285341,-0.1967041,-0.2074578,-9.793154
26596669,-0.0001030193,0.0001219558,0.0007487697,-0.1990875,-0.2073429,-9.795225
26616491,1.525068e-05,-0.0003991713,0.0006816069,-0.2014114,-0.2021739,-9.79403
26636252,1.054397e-05,-0.0005135749,0.0005678427,-0.2038891,-0.2104291,-9.784423
26656336,0.0002197875,-0.0003767759,0.0004000789,-0.2035791,-0.2131152,-9.77809
26676255,0.0005387402,-0.0002765215,0.0003602083,-0.2015398,-0.2091393,-9.790597
26696593,0.0009374609,-0.0007681343,0.0003832298,-0.1991548,-0.204178,-9.794312
26716320,0.0008635561,-0.001213167,0.0004741577,-0.2061197,-0.1996731,-9.78203
26736280,0.0005616292,-0.001337232,0.0004469634,-0.2041759,-0.2000993,-9.777637
26756271,0.0002814613,-0.001826959,0.0004282395,-0.201349,-0.1995529,-9.779325
26776482,0.0001514363,-0.002254353,0.0001797371,-0.1994168,-0.2101282,-9.784472
26796587,-0.000152334,-0.001683329,8.252795e-06,-0.2027289,-0.2130858,-9.787585
26816298,-0.0001706472,-0.0009438199,7.198408e-05,-0.2012442,-0.2059532,-9.78745
26836257,4.156548e-05,-0.0008119985,0.00011101,-0.1954573,-0.1998319,-9.791881
26856300,0.0004250481,-0.0008359514,2.968671e-05,-0.1991487,-0.2024602,-9.795872
26876241,0.0009512299,-0.0008244108,0.0001631166,-0.1977748,-0.2048338,-9.791869
26896610,0.001343168,-0.0008149477,0.0003077639,-0.2002944,-0.2055514,-9.787709
26916254,0.001532434,-0.001177802,0.0005691891,-0.192688,-0.2075151,-9.790001
26936457,0.00108773,-0.001309116,0.0007464139,-0.1962169,-0.2171761,-9.787776
26956287,0.001105792,-0.001836476,0.000632031,-0.1927232,-0.2194785,-9.776125
26976274,0.001373838,-0.002387279,0.0005016074,-0.2052179,-0.2151717,-9.789366
26996553,0.001482185,-0.002644853,0.0005426425,-0.2028494,-0.2152126,-9.798906
27016250,0.001314763,-0.002398182,0.0003104093,-0.2068824,-0.2132072,-9.80234
27036242,0.0006570884,-0.002126147,0.0002141716,-0.2105512,-0.2101289,-9.788074
27056272,0.0001433549,-0.001851112,0.0002453552,-0.2021146,-0.2160468,-9.783284
27076291,0.0001705927,-0.001899039,1.578536e-05,-0.2144352,-0.2104437,-9.782466
27096841,0.0003573785,-0.002230048,-8.432897e-05,-0.2095549,-0.211894,-9.783383
27116261,0.0004580955,-0.002303097,-0.0001010054,-0.2045222,-0.2126744,-9.773044
27136262,0.0003116193,-0.002038573,-0.0001839108,-0.2034854,-0.2172455,-9.771485
27156273,0.0001251653,-0.001427644,-0.0001873608,-0.2019695,-0.2169037,-9.775777
27176252,5.626946e-05,-0.0006048272,-0.0001529309,-0.2059405,-0.2170812,-9.783174
27196648,0.0001935233,-5.500483e-05,1.64239e-05,-0.2001957,-0.2151089,-9.786926
27216250,0.0002979125,0.0003276163,0.0002207924,-0.1964149,-0.2078755,-9.778006
27236249,0.0002942567,0.0002900972,0.0004663497,-0.1978095,-0.2118323,-9.77308
27256470,0.0007050767,-7.067826e-05,0.0003170769,-0.1986476,-0.2168298,-9.78137
27276251,0.0008000068,0.0002270945,0.0002893909,-0.1994119,-0.2168709,-9.775949
27296611,0.001062326,0.000244065,0.0001251659,-0.2019746,-0.2191324,-9.779696
27316233,0.001033382,0.0003537126,-1.330877e-05,-0.206014,-0.2164585,-9.780546
27336286,0.001016139,0.0002620454,0.0001251878,-0.1994421,-0.2218209,-9.795
27356262,0.001044361,-0.0004252417,0.0002048648,-0.201738,-0.2190129,-9.802083
27376244,0.0009596031,-0.001235421,0.0003222073,-0.2080775,-0.2169697,-9.807388
27396578,0.000723915,-0.001359531,0.0003169831,-0.2004935,-0.2155315,-9.795919
27416497,0.0007191921,-0.001886163,0.0002191878,-0.2062831,-0.2140246,-9.783911
27436262,0.0007876924,-0.002353355,0.0001556772,-0.2071363,-0.2227705,-9.778809
27456309,0.0005598071,-0.001993015,1.28412e-05,-0.1947725,-0.2216527,-9.778692
27476239,0.0003631089,-0.001462379,3.304956e-05,-0.2066943,-0.2177995,-9.779112
27496642,0.0002591711,-0.0008692116,6.008845e-05,-0.2084283,-0.2201521,-9.775321
27516307,0.0003597239,-0.0005717069,1.742027e-05,-0.2048349,-0.2115359,-9.789975
27536224,0.0005223819,-0.0001129032,-5.736914e-05,-0.204165,-0.213844,-9.801957
27556279,0.0004075159,0.0003825991,-0.0002241422,-0.2047324,-0.2078809,-9.799729
27576417,0.0003690037,0.0003666566,-0.0003572364,-0.212797,-0.2012046,-9.785939
27596627,0.0001789488,0.0001417984,-0.0003840929,-0.2176416,-0.2016702,-9.780035
27616238,0.0003118593,-0.0005462469,-9.275179e-05,-0.2113989,-0.2087552,-9.781163
27636250,0.0005064303,-0.001511116,0.0001888522,-0.2090981,-0.2050109,-9.79069
27656282,0.0003630136,-0.002038413,0.0003515793,-0.2046735,-0.2061357,-9.793324
27676262,-5.29512e-05,-0.002119753,0.0004721481,-0.2046181,-0.2135408,-9.793316
27696629,-0.000161582,-0.002075203,0.000462307,-0.1974592,-0.2184739,-9.781193
27716245,6.053972e-05,-0.002032199,0.0003938695,-0.2002986,-0.2148133,-9.773593
27736474,0.0002703614,-0.001694544,0.0003469871,-0.206755,-0.2197599,-9.786933
27756284,0.0003851662,-0.001467145,0.0002044928,-0.1977884,-0.2180441,-9.808255
27776226,0.0004197808,-0.001541779,9.908918e-05,-0.1872331,-0.2112644,-9.797614
27796613,0.0004259309,-0.001668948,-0.0001379833,-0.1781815,-0.2164517,-9.787358
27816265,0.0005858568,-0.00182191,-0.000268647,-0.1941915,-0.2259231,-9.785192
27836248,0.0007593188,-0.002219708,-0.0002818121,-0.2103572,-0.2217543,-9.79146
27856302,0.0009166576,-0.002119713,-0.0002899511,-0.2151277,-0.2166405,-9.785657
27876227,0.0007378445,-0.001834724,-5.453832e-05,-0.2140477,-0.2177995,-9.794527
27896851,0.0007691293,-0.002090568,8.739961e-05,-0.219076,-0.2162353,-9.798471
27916284,0.0006343774,-0.001660541,4.991201e-05,-0.214898,-0.2095436,-9.794976
27936268,0.0005827539,-0.001072931,7.508479e-05,-0.2021577,-0.2059302,-9.781575
27956352,0.0004292774,-0.0005422716,-5.969517e-05,-0.1941235,-0.2089677,-9.776171
27976258,-4.475491e-05,0.0001726909,-0.00010761,-0.1972763,-0.2183343,-9.777572
27996670,-0.000352889,0.0004794148,-0.0001952351,-0.2102163,-0.220223,-9.779279
28016306,-3.176749e-06,0.0001693696,-0.000182319,-0.1992649,-0.2184423,-9.780988
28036228,0.000255571,-6.918921e-05,-0.0001184296,-0.1968913,-0.2139427,-9.783113
28056490,0.0002889149,-0.0003672292,0.0001273883,-0.198485,-0.2138333,-9.780268
28076255,0.0002639979,-0.0004496278,0.0003153936,-0.20259,-0.2145369,-9.794724
28096614,0.0005491708,-0.0008687305,0.0002091056,-0.2069124,-0.2081115,-9.796943
28116234,0.0005214172,-0.0007419172,8.566023e-05,-0.207974,-0.2131265,-9.787877
28136244,0.0003018926,-0.0002036034,3.209268e-05,-0.204906,-0.2070718,-9.779841
28156289,-0.0002127617,0.0002970324,3.467729e-05,-0.2070612,-0.2037637,-9.77742
28176262,-0.0004801884,0.0003943305,7.601677e-05,-0.2019488,-0.2115759,-9.791622
28196628,-0.0009369458,0.0005828558,4.189088e-05,-0.202996,-0.217829,-9.804834
28216486,-0.0009651796,0.0006804206,-1.371467e-05,-0.2053118,-0.2154422,-9.796908
28236260,-0.000654777,0.0003926602,-9.374425e-05,-0.2029207,-0.2204293,-9.787681
28256270,-0.0001578109,-0.000281276,-0.0002265676,-0.1933006,-0.2137725,-9.780448
28276213,0.0002872795,-0.0005788784,-0.0002682897,-0.1854464,-0.2124184,-9.772422
28296693,0.0003925807,-0.0007898258,-0.0001808932,-0.192424,-0.2147131,-9.774347
28316251,0.0006572214,-0.0005676567,-3.802255e-05,-0.1956082,-0.212107,-9.784834
28336267,0.001119444,-0.0005655912,-3.283002e-05,-0.1990116,-0.2165913,-9.788756
28356278,0.001262803,-0.0005863861,0.0002082809,-0.1942005,-0.2147488,-9.789281
28376468,0.001184041,-0.0007833659,0.0004114903,-0.1891741,-0.2167664,-9.789965
28396671,0.001006276,-0.0008125107,0.0002989841,-0.2013055,-0.2129665,-9.78769
28416222,0.001174881,-0.000598781,0.0002701921,-0.2091929,-0.211698,-9.790476
28436234,0.00121272,-0.0006017493,0.000365172,-0.205454,-0.2095454,-9.794384
28456305,0.001207848,-0.0003744848,0.0003433347,-0.2081158,-0.2147303,-9.792223
28476248,0.001176778,-0.0008021315,0.0003035591,-0.2043519,-0.2181768,-9.789925
28496588,0.001097184,-0.001464628,0.0002109269,-0.1989742,-0.2131934,-9.794456
28516260,0.000892244,-0.001771773,0.0001104235,-0.201602,-0.2107228,-9.776642
28536464,0.0008139738,-0.001807366,0.0001429455,-0.2012734,-0.2106426,-9.770174
28556287,0.0004828295,-0.001535584,0.0002852536,-0.1995718,-0.2117097,-9.781754
28576245,0.0004212868,-0.001242098,0.0003025045,-0.1982957,-0.2121046,-9.786546
28596629,0.0001972162,-0.001178947,0.0001486054,-0.1999062,-0.2174514,-9.779741
28616237,0.0002036775,-0.0008527489,-0.0001356308,-0.2070645,-0.2104653,-9.78511
28636198,0.0001213284,-0.0001032182,-0.0002650077,-0.2131854,-0.2174655,-9.781421
28656274,0.0001285593,0.0001713954,-0.0001209977,-0.2072027,-0.2183206,-9.778822
28676228,0.0001237405,0.0001766736,-7.287234e-05,-0.2054971,-0.2124364,-9.798407
28696850,-6.124913e-05,0.000135278,-0.0001055447,-0.2038584,-0.2052385,-9.799432
28716209,-7.723765e-05,-0.0003610782,-0.0001786694,-0.205146,-0.2106294,-9.796235
28736266,0.0002255018,-0.001486693,-0.000264782,-0.2055014,-0.2209663,-9.795673
28756286,0.0007731362,-0.001734667,-0.0003839109,-0.2040233,-0.2221785,-9.788765
28776257,0.0007456868,-0.001578705,-0.0005047867,-0.203755,-0.2177635,-9.785551
28796608,0.0006738098,-0.001157494,-0.0006170572,-0.2007987,-0.21668,-9.808396
28816224,0.0001271869,-0.0006157404,-0.0004350936,-0.1948569,-0.2159035,-9.811985
28836249,-0.000242591,-0.0004495234,-0.0002487252,-0.2009269,-0.2096978,-9.800103
28856490,-0.0006273735,-6.205295e-06,-0.0002093526,-0.1980524,-0.2153958,-9.787774
28876258,-0.0006674039,0.0005086873,-0.0003617346,-0.1927316,-0.2144552,-9.784742
28896609,-0.0005261226,0.0008434159,-0.0003087867,-0.1972192,-0.2173109,-9.78035
28916340,-0.0004689761,0.00104387,-8.474476e-05,-0.1986164,-0.2226359,-9.779824
28936251,-0.0004008174,0.0009908301,0.0001512568,-0.2021926,-0.219494,-9.786631
28956288,-0.0002656939,0.0004482127,0.0001533255,-0.2000838,-0.2156125,-9.786354
28976241,0.0001362924,-0.0002944786,5.711386e-05,-0.1960205,-0.2057731,-9.795078
28996609,-7.8486e-06,-0.0005269911,0.0001217927,-0.1967842,-0.2133166,-9.791716
29016473,-0.0004307537,-0.0006868862,0.0002865353,-0.200149,-0.2126125,-9.784883
29036254,-0.0007846926,-0.0003651815,0.0002954489,-0.2054591,-0.2158628,-9.779132
29056288,-0.00103272,0.0002420432,0.0003171849,-0.2018588,-0.2214834,-9.778529
29076266,-0.0007925453,0.000285647,0.0003755562,-0.2005593,-0.2175055,-9.779827
29096634,-0.0005534239,5.277035e-05,0.0004111991,-0.2022756,-0.2165773,-9.794373
29116276,-0.0003479864,-0.0003604763,0.0004379207,-0.200532,-0.2193785,-9.794235
29136232,-6.74885e-07,-0.0006263124,0.0003979011,-0.194778,-0.2188302,-9.791247
29156312,0.0002733414,-0.0006268068,0.0003097168,-0.1891975,-0.2226183,-9.792873
29176413,0.0003837217,-0.0005599806,0.0001250512,-0.1921669,-0.2184468,-9.789402
29196595,0.0001181208,-7.273092e-05,9.035151e-05,-0.2030219,-0.2141274,-9.784742
29216244,0.000282514,-0.0001023185,7.122503e-05,-0.196351,-0.2152336,-9.775277
29236253,0.0002419613,-0.0002996144,0.0001753862,-0.2020389,-0.2104413,-9.769313
29256270,0.0002729391,-0.0007047074,0.0004803935,-0.2101782,-0.2089693,-9.767969
29276240,0.0003307971,-0.0009907316,0.0006989294,-0.2084458,-0.2080634,-9.774123
29296636,0.0003610557,-0.001214636,0.0005918657,-0.2023363,-0.2113913,-9.789816
29316230,0.0002107457,-0.001011161,0.0006200305,-0.2031678,-0.2185824,-9.788386
29336458,0.000368517,-0.000797277,0.0006751286,-0.2052555,-0.2199618,-9.791324
29356307,0.0001889744,-0.0003889049,0.0006781801,-0.2099174,-0.2224393,-9.78465
29376260,-0.0002419231,-0.0001873223,0.0007497703,-0.2023856,-0.2246241,-9.78146
29396611,-0.0003295701,-0.0006424046,0.0006919447,-0.1914986,-0.2312399,-9.781013
29416267,-0.0001447976,-0.0009983333,0.0004833603,-0.2057552,-0.2215587,-9.786352
29436255,0.0004455562,-0.0009370723,0.0002768726,-0.2061708,-0.2168906,-9.788289
29456284,0.0006474921,-0.0006482166,0.0003061033,-0.2117764,-0.2167745,-9.785873
29476205,0.0007580429,-0.0008249923,0.0003112667,-0.2040066,-0.2121852,-9.789891
29496874,0.0009918237,-0.001058411,0.000248303,-0.2018281,-0.2154139,-9.793263
29516267,0.0009419863,-0.0009732954,0.0002000755,-0.2061766,-0.2085929,-9.787659
29536249,0.0007919725,-0.0008125879,0.0001383675,-0.2049121,-0.2167812,-9.780968
29556324,0.0005836806,-0.0006761957,0.0001515431,-0.2146257,-0.2214128,-9.788726
29576230,0.0005122385,-0.0003958856,0.0003558557,-0.2189607,-0.2175046,-9.802015
29596583,0.0007886029,-0.0005098294,0.0003059591,-0.2124398,-0.2110706,-9.80226
29616272,0.001012942,-0.0005627598,0.000254384,-0.2068229,-0.2217743,-9.788304
29636248,0.0008437072,-0.0003964612,0.0001719849,-0.2048524,-0.2212055,-9.784435
29656497,0.0004979232,-0.0002568794,0.000183879,-0.2004992,-0.2149112,-9.783855
29676242,7.870452e-05,4.342818e-05,0.0003170562,-0.2034452,-0.2097118,-9.788147
29696615,-0.0002287852,0.0004214941,0.0003174225,-0.2059012,-0.2105561,-9.788774
29716286,-0.0005969733,0.0007962917,0.0002324117,-0.203039,-0.207631,-9.78635
29736230,-0.0005345553,0.0002930482,0.000212386,-0.1990354,-0.2133902,-9.784323
29756277,-0.0002245727,-0.000513421,0.000226307,-0.2006028,-0.2126898,-9.784938
29776233,-4.740387e-05,-0.001062496,0.0001742006,-0.2099402,-0.2122598,-9.795019
29796650,0.0001367576,-0.00127006,0.0002035825,-0.2095223,-0.2187051,-9.795645
29816562,0.0003085624,-0.001501756,0.0002436253,-0.2055775,-0.2183439,-9.799167
29836234,0.0002300194,-0.001187756,0.0002953488,-0.2028632,-0.2058668,-9.795759
29856297,0.0001795729,-0.001271981,0.0003844484,-0.2051167,-0.206665,-9.790659
29876241,0.0003558794,-0.001022867,0.0003952071,-0.2171642,-0.2085491,-9.787408
29896587,0.0004643268,-0.0008361096,0.0004638298,-0.2125895,-0.2017819,-9.779822
29916231,0.0008239287,-0.0009986688,0.00040463,-0.2053273,-0.2158626,-9.783804
29936249,0.001070261,-0.001422919,0.0003477081,-0.1936819,-0.2113868,-9.787315
29956267,0.001120008,-0.001388062,0.000336883,-0.2030933,-0.2104149,-9.788696
29976397,0.000848026,-0.0006753563,0.0003313514,-0.2059653,-0.2131467,-9.77646
29996619,0.0008876565,4.669169e-05,0.0001097683,-0.1996626,-0.2190328,-9.773477
30016260,0.0006962608,0.0002430635,0.0001569141,-0.2063005,-0.2191224,-9.771125
30036228,0.0003358984,0.0003974451,0.0003583733,-0.2058834,-0.2075275,-9.781194
30056274,0.0001230102,0.0002355647,0.0003537552,-0.2066591,-0.2084575,-9.77412
30076255,8.71132e-05,-0.000387867,0.000224785,-0.2032042,-0.2158411,-9.777441
30096605,0.0003423019,-0.001082161,3.135681e-05,-0.1977885,-0.225594,-9.79353
30116230,0.0006835032,-0.001986769,9.460202e-05,-0.1962523,-0.2200336,-9.800289
30136436,0.0009139166,-0.002987634,0.0002466924,-0.2044251,-0.2207425,-9.790631
30156283,0.001132545,-0.003147857,0.0002613195,-0.2025161,-0.2167604,-9.781661
30176241,0.001188186,-0.002569835,0.0002664001,-0.2060079,-0.2141802,-9.78599
30196625,0.001091357,-0.002077547,0.0003564359,-0.2102294,-0.2195524,-9.791448
30216284,0.00124396,-0.00165887,0.0002233792,-0.2043739,-0.2146934,-9.790629
30236204,0.001391719,-0.001233684,0.0001199021,-0.1965391,-0.2081299,-9.794451
30256254,0.001015033,-0.001240082,7.573148e-05,-0.1992932,-0.217414,-9.792832
30276259,0.0003454268,-0.0006905461,5.50533e-05,-0.2022986,-0.2203131,-9.790063
30296872,1.36269e-05,-0.0005679516,-6.493607e-05,-0.2079087,-0.2206687,-9.792987
30316254,2.06575e-05,-0.0005775196,-0.0001632428,-0.2112865,-0.2187128,-9.785029
30336221,9.008302e-05,-0.0004057136,-0.00029928,-0.2151645,-0.2154048,-9.777996
30356308,4.746648e-05,-0.0008451724,-0.0001567782,-0.2118188,-0.2096921,-9.778281
30376234,0.0001556428,-0.001060465,-3.335281e-06,-0.2059649,-0.2078698,-9.781454
30396609,0.0003746235,-0.00146283,0.0001484409,-0.2062256,-0.2080373,-9.781054
30416259,0.0004389607,-0.001318736,0.0001865242,-0.1954978,-0.2121106,-9.776809
30436244,0.0003626284,-0.0008183736,0.0002755495,-0.1955467,-0.2140459,-9.778726
30456495,0.0003220223,-0.0008573626,0.0002950972,-0.1929312,-0.2072642,-9.789878
30476255,0.0002549747,-0.000845329,0.0003980965,-0.1999734,-0.2107803,-9.795025
30496621,0.0004996627,-0.001036527,0.0004096257,-0.2166883,-0.2094857,-9.786553
30516286,0.0003889055,-0.00114135,0.0002210403,-0.2242001,-0.2010944,-9.789067
30536225,0.0006314514,-0.001370357,0.0001216594,-0.2189617,-0.2071777,-9.796134
30556260,0.0007886665,-0.001716,0.000119912,-0.2121253,-0.2128989,-9.809285
30576236,0.001002261,-0.001898645,0.0001342841,-0.2099475,-0.214032,-9.806515
30596632,0.001159035,-0.001655788,0.0001420575,-0.2074985,-0.2201456,-9.807072
30616486,0.001172295,-0.001322942,0.0001444134,-0.200878,-0.2132906,-9.801035
30636225,0.0009286689,-0.0009858902,5.480566e-05,-0.2012968,-0.2174589,-9.794176
30656281,0.0006682163,-0.000726692,2.523377e-05,-0.1914481,-0.2239624,-9.78807
30676201,0.0004688957,-0.0004316768,9.002947e-05,-0.1985197,-0.228593,-9.787909
30696583,-2.572513e-06,-0.0006430589,0.0003700393,-0.2032049,-0.2198959,-9.783398
30716258,-0.0002967137,-0.001148412,0.0004549534,-0.2043912,-0.2110919,-9.772415
30736241,-0.0002894074,-0.001735087,0.0006529384,-0.2115865,-0.2102527,-9.78191
30756294,6.212398e-05,-0.002025183,0.0005961602,-0.2053422,-0.2109071,-9.785954
30776410,0.0002803692,-0.001850035,0.0004942855,-0.2022255,-0.209935,-9.785317
30796624,0.0003251777,-0.001623351,0.000391118,-0.1992433,-0.2160808,-9.766353
30816250,0.0003975328,-0.001313405,0.0001190559,-0.2022505,-0.2168624,-9.764516
30836240,0.0008104609,-0.001059105,-8.734916e-05,-0.1996049,-0.2099711,-9.770905
30856274,0.001286657,-0.0007861316,-8.816418e-05,-0.1990993,-0.2133526,-9.783837
30876197,0.001585573,-0.0006985835,-0.0001084311,-0.2008469,-0.2174879,-9.774288
30896560,0.001470723,-0.0007326269,-0.0001520745,-0.2085324,-0.2167579,-9.770589
30916263,0.001084141,-0.0006896449,-0.0001491884,-0.2046555,-0.2167482,-9.784101
30936422,0.0007017857,-0.0005906032,-0.0001088706,-0.194805,-0.2213111,-9.793529
30956320,0.0006118307,-0.0007001805,-9.051158e-05,-0.1903126,-0.2173399,-9.787457
30976268,0.001000875,-0.000702214,-0.0001131732,-0.1973914,-0.2187301,-9.784904
30996649,0.001424283,-0.001191401,0.0002195393,-0.201206,-0.2254056,-9.793636
31016284,0.001429683,-0.001476449,0.0003473872,-0.2060682,-0.2244125,-9.792568
31036240,0.001411052,-0.001265759,0.0004285249,-0.2060292,-0.2168321,-9.789406
31056262,0.001173441,-0.0009579734,0.0004303206,-0.1971387,-0.2158893,-9.77522
31076227,0.0009308992,-0.0004659398,0.0003367477,-0.2010271,-0.2078564,-9.775156
31096805,0.0008340008,-0.0002482309,0.000495767,-0.1960639,-0.2176902,-9.774049
31116221,0.0008728971,-0.0005700489,0.0005698288,-0.1975459,-0.2194719,-9.783074
31136222,0.001225289,-0.001390729,0.0004960646,-0.2066113,-0.2209506,-9.789055
31156261,0.001091412,-0.001836064,0.0004417313,-0.2018322,-0.219179,-9.786067
31176243,0.001066394,-0.002219961,0.0003064158,-0.2012616,-0.2157239,-9.781568
31196554,0.001067196,-0.00233353,0.0002851678,-0.2042897,-0.2169222,-9.791855
31216236,0.0006869836,-0.002249383,0.0002092197,-0.1974295,-0.215647,-9.780245
31236237,0.0006590429,-0.001845145,0.0001107417,-0.2019711,-0.2070799,-9.774263
31256453,0.0008008486,-0.001726848,2.44272e-05,-0.1974317,-0.2076341,-9.788358
31276196,0.0008388679,-0.001747483,-4.697952e-05,-0.2023636,-0.2169464,-9.789366
31296562,0.0008432237,-0.001873147,-9.88237e-05,-0.2059952,-0.2188265,-9.78681
31316240,0.001101582,-0.001663643,-8.898399e-05,-0.2012396,-0.2261809,-9.790811
31336214,0.00135348,-0.001668481,-1.374893e-06,-0.1981638,-0.2235046,-9.798132
31356237,0.001285146,-0.001847421,0.000195889,-0.2033996,-0.2241856,-9.792853
31376224,0.001193398,-0.001734645,0.0004030724,-0.2057491,-0.2101244,-9.788507
31396572,0.0006660964,-0.001200135,0.0005819065,-0.2013531,-0.2149579,-9.777603
31416425,0.0003964542,-0.0008085156,0.0008040623,-0.2055062,-0.2179716,-9.795864
31436205,0.000165034,-0.0004146548,0.001128024,-0.2084577,-0.212695,-9.797857
31456245,-1.071913e-05,-0.0002413888,0.001252107,-0.224378,-0.2061053,-9.794839
31476196,-0.0001083584,-0.0003296787,0.001035808,-0.2170096,-0.2158,-9.798524
31496567,0.0001668721,-0.0005156911,0.0007255409,-0.2072105,-0.2113743,-9.792421
31516265,0.0005062798,-0.0006645304,0.000490155,-0.213238,-0.2058646,-9.793076
31536172,0.0005774684,-0.0008208828,0.0004836331,-0.2077346,-0.2121195,-9.792754
31556240,0.0005966846,-0.000725846,0.0005349957,-0.1984105,-0.2113552,-9.798896
31576437,0.0006733263,-0.001301326,0.0005906239,-0.1992335,-0.2117822,-9.794317
31596580,0.0005024806,-0.001651012,0.0006698677,-0.2034278,-0.2164398,-9.801777
31616263,0.0003998046,-0.001577602,0.0005633333,-0.2028199,-0.2178881,-9.800821
31636203,0.0004285445,-0.001735818,0.0004040299,-0.1933585,-0.2136959,-9.789426
31656251,0.0006363504,-0.002002206,0.0004830694,-0.1984213,-0.2162569,-9.786246
31676178,0.0009821745,-0.002107349,0.0004520908,-0.2031166,-0.2139544,-9.796381
31696569,0.001364283,-0.002258779,0.0003220637,-0.2025129,-0.2127635,-9.789213
31716237,0.00168261,-0.002271605,-6.006698e-05,-0.1912239,-0.2165061,-9.78847
31736428,0.001682421,-0.002352655,-4.251358e-05,-0.1880751,-0.2187091,-9.78299
31756264,0.00141277,-0.002230496,7.595881e-05,-0.1973217,-0.2244743,-9.771018
31776224,0.001466675,-0.002417608,0.0001438128,-0.2067061,-0.2217935,-9.786171
31796581,0.0008882555,-0.001997598,0.0002055847,-0.1930464,-0.2246567,-9.792497
31816227,0.0003720955,-0.001637222,0.0001782143,-0.1954734,-0.2172603,-9.788594
31836215,0.0001173398,-0.00096281,-1.082475e-05,-0.1912991,-0.2172465,-9.783465
31856273,-0.0001463141,-0.0004312042,9.615487e-06,-0.1903979,-0.2179866,-9.778286
31876216,-0.0005378881,-0.0001155283,0.0001357802,-0.1928688,-0.2094959,-9.784291
31896827,-0.0005616269,-0.0001340881,0.0001488939,-0.1990441,-0.2119699,-9.783139
31916222,-0.0003857625,-0.0005024268,0.0001432845,-0.2047316,-0.2112393,-9.782513
31936234,-0.0002270949,-0.000917163,0.0001834732,-0.2095276,-0.2070779,-9.774899
31956261,-0.0001663861,-0.00095288,0.000183562,-0.205807,-0.2114044,-9.782219
31976187,0.0003115934,-0.0008181838,0.000174147,-0.2042269,-0.2186336,-9.778775
31996580,0.0005575997,-0.0007998311,0.0002175764,-0.2120917,-0.2150561,-9.769957
32016232,0.0003996771,-0.0005062643,0.0001861149,-0.2148217,-0.2101187,-9.769158
32036146,0.0002142253,-0.0004561929,0.0002447815,-0.2106823,-0.2064165,-9.777576
32056496,1.894696e-05,-0.0003670743,0.0001664714,-0.2005549,-0.202054,-9.783998
32076224,-8.494486e-05,-0.0001698995,0.0001209372,-0.2018194,-0.2092199,-9.797957
32096569,-2.250751e-05,-6.360441e-05,0.0001336651,-0.2033682,-0.2097661,-9.794217
32116246,0.0001047293,-0.0002673389,0.0001933839,-0.1909355,-0.2113837,-9.781377
32136189,0.0001615584,-0.0006230907,0.0002670466,-0.1937919,-0.2092014,-9.773633
32156261,1.500991e-06,-0.0009103382,0.000281793,-0.204426,-0.2093378,-9.784842
32176242,-0.0002331656,-0.001512865,0.0001763528,-0.2076576,-0.2165709,-9.782842
32196579,-0.0001322997,-0.001805988,0.0001284762,-0.2102407,-0.2222603,-9.776192
32216423,0.0002432743,-0.002046544,-3.685273e-05,-0.2080762,-0.2260177,-9.778349
32236256,0.0002655838,-0.002137896,5.067383e-05,-0.1989108,-0.2189809,-9.781085
32256255,-2.746648e-05,-0.001653153,0.000177832,-0.1977133,-0.2086273,-9.786057
32276217,-0.0002797217,-0.00129713,0.0002701937,-0.199579,-0.2082486,-9.785441
32296613,-0.0005788187,-0.000580464,0.0002645181,-0.1959192,-0.2101188,-9.789741
32316249,-0.0005666878,-8.719104e-05,9.326881e-05,-0.1998893,-0.2004144,-9.779208
32336216,-0.0005850285,0.0002317827,-0.0001985766,-0.2002671,-0.2045895,-9.782393
32356270,-0.0002627866,0.0002284744,-0.0001362565,-0.1961131,-0.21236,-9.781941
32376419,-8.652295e-06,-0.0001693869,-9.065108e-05,-0.2101831,-0.2079275,-9.788
32396569,0.0002129132,-0.0005323922,-5.88503e-05,-0.2044243,-0.2042708,-9.779284
32416222,0.0004154693,-0.001060409,-1.10735e-05,-0.1987674,-0.206865,-9.777701
32436222,2.254783e-05,-0.001115394,-6.90224e-06,-0.1962322,-0.2088375,-9.781542
32456267,-0.0002244241,-0.001090791,2.886486e-05,-0.2017127,-0.2131299,-9.782396
32476194,-0.0004757698,-0.0008061092,0.0002512783,-0.2019659,-0.2146099,-9.790561
32496611,-0.0003489089,-0.0004272689,0.0003593391,-0.2088765,-0.2131021,-9.791098
32516206,-3.103738e-05,-0.0003660576,0.0003020066,-0.2070152,-0.215615,-9.788003
32536411,0.0002313958,-0.0005212133,0.0002947852,-0.1908037,-0.2177321,-9.788543
32556229,0.0001195091,-0.0009198156,0.000418525,-0.1907167,-0.217643,-9.784554
32576220,0.0001296078,-0.001586486,0.0003298539,-0.2026104,-0.221833,-9.782169
32596574,-0.0001234857,-0.001934977,0.0004842227,-0.2037604,-0.2141142,-9.789218
32616215,-0.0003523403,-0.001773167,0.0005687394,-0.1946067,-0.2078678,-9.78568
32636190,-0.0001287301,-0.001097438,0.0004174869,-0.1966845,-0.2081708,-9.785445
32656228,1.664091e-05,-0.0003304137,0.0002795094,-0.19891,-0.2085478,-9.785326
32676203,0.000242283,0.000438281,0.0002173186,-0.2050393,-0.207522,-9.795087
32696799,0.000465838,0.0009151973,-6.246083e-05,-0.2098627,-0.2030688,-9.798502
32716253,0.0007584267,0.001250665,-0.0004920039,-0.2010611,-0.206735,-9.796182
32736210,0.0009531208,0.0006212031,-0.0004862773,-0.2000466,-0.2160529,-9.78696
32756266,0.0007452274,3.426505e-05,-0.0002443795,-0.2080636,-0.2120587,-9.782947
32776232,0.0009427829,-0.0004845087,8.480803e-06,-0.2319632,-0.2053116,-9.802915
32796580,-0.008680501,-0.0255555,0.006920457,-1.191394,-0.4095154,-10.38344
32816162,-0.003160428,-0.04337344,0.03577257,-1.818004,-0.1207372,-8.89303
32836183,0.02558341,-0.06465727,0.08317521,-2.128998,-0.07533071,-9.746092
32856506,0.03217519,-0.0570479,0.1412678,-1.626096,0.4190194,-9.862731
32876245,0.02820021,-0.042286,0.1919409,-1.005775,0.6810888,-9.75586
32896610,0.02519107,-0.02668851,0.2226651,-0.7098582,0.8080748,-9.715239
32916214,0.02169437,-0.01339225,0.2229195,-0.8548827,0.520068,-9.85863
32936246,0.03567735,-0.01548064,0.1787655,-1.39146,-0.2414065,-10.35507
32956269,0.04924154,-0.03076006,0.08416048,-1.85707,-0.4582152,-9.316164
32976124,0.04193405,-0.02350363,-0.02229177,-2.391464,-0.2328143,-9.331561
32996569,0.01860056,-0.01429932,-0.09994338,-2.76581,-0.2060397,-10.25009
33016448,0.02380991,-0.006071475,-0.1308623,-2.579081,-0.572069,-9.012179
33036232,0.009308002,0.006383992,-0.1158348,-1.785171,-0.08812951,-10.42001
33056274,-0.01059135,0.01085466,-0.07331381,-1.677688,-0.1850583,-10.38692
33076213,0.01234859,-0.001347318,-0.04934912,-1.746588,-0.0352446,-8.882747
33096562,0.0214567,-0.005179913,-0.04516873,-2.245065,0.09688678,-9.569531
33116227,0.0007948105,0.005320699,-0.04474898,-2.732319,-0.01255853,-9.911421
33136214,-0.01088476,0.01117812,-0.02592427,-2.642542,0.1271186,-9.819694
33156224,0.02258595,0.004757969,-0.01014456,-2.05887,-0.2156904,-9.17954
33176441,0.02466863,0.02995169,-0.01825224,-1.330896,0.05159058,-9.443156
33196560,0.007048008,0.04872566,-0.05917191,-1.137518,-0.4597073,-10.44997
33216243,-0.005814882,0.04986087,-0.1146256,-1.361459,-0.6335412,-9.748794
33236174,-0.008169742,0.04256799,-0.1758231,-1.459104,-0.6553575,-9.550185
33256217,-0.008268091,0.03818467,-0.2328352,-1.579911,-0.7382579,-9.743507
33276222,-0.005397333,0.02903044,-0.2826718,-1.452222,-0.5372483,-9.809563
33296583,-0.006893419,0.02167277,-0.3270684,-1.339593,-0.3138836,-9.568969
33316285,-0.006425643,0.01478043,-0.3715196,-1.276678,-0.2274912,-10.0873
33336410,-0.01414165,0.002094694,-0.4168524,-1.252135,-0.285602,-9.726415
33356260,-0.02138809,-0.004604727,-0.4619873,-1.157429,-0.08774971,-9.847986
33376204,-0.02768262,-0.01160317,-0.5082302,-1.193186,0.04575599,-9.468631
33396570,-0.02349433,-0.01108313,-0.5582848,-1.04622,0.09197829,-9.757483
33416214,-0.02464543,-0.01052718,-0.6140387,-0.983241,0.0777303,-9.887724
33436168,-0.02551881,-0.01012535,-0.6690682,-0.9098324,0.02539503,-9.705984
33456242,-0.02866171,-0.007263266,-0.7233936,-0.9265428,0.2081442,-9.500011
33476230,-0.02376705,-0.007849308,-0.7751904,-0.9185221,0.279011,-9.985044
33496827,-0.02553631,-0.004921899,-0.8278695,-0.6422194,0.2638248,-10.02925
33516223,-0.03371752,-0.00184569,-0.8834886,-0.6973398,0.1840332,-9.729259
33536234,-0.03608486,0.0001396652,-0.9361323,-0.7367408,0.1954098,-9.913262
33556252,-0.04526416,-0.008075732,-0.9872499,-0.574866,0.3461306,-10.41315
33576214,-0.04727056,-0.01766855,-1.030686,-0.6499541,0.4029072,-9.571576
33596563,-0.03525574,-0.02672557,-1.073861,-0.6348991,0.3446429,-9.382082
33616232,-0.04408303,-0.02361761,-1.121554,-0.4765004,0.4877892,-9.916866
33636232,-0.05138882,-0.0218379,-1.175776,-0.4853714,0.6242414,-9.906183
33656421,-0.05011402,-0.02025478,-1.231253,-0.5704421,0.3666746,-9.403829
33676178,-0.04480024,-0.01305733,-1.288044,-0.3960092,0.5935801,-9.813742
33696553,-0.04411591,-0.01519171,-1.350512,-0.494978,0.3625752,-9.597159
33716194,-0.04560786,-0.01901107,-1.412751,-0.2090343,0.4772315,-10.07195
33736211,-0.07231133,-0.03634534,-1.482859,-0.4076728,0.7734924,-10.05455
33756287,-0.07771009,-0.03626754,-1.549495,-0.496593,0.7747172,-9.041158
33776174,-0.06795806,-0.03213369,-1.62033,-0.2134425,1.20015,-10.38184
33796574,-0.06984391,-0.02340498,-1.686599,-0.0172105,0.8077976,-9.648594
33816434,-0.06421821,-0.02092591,-1.735515,0.006426555,1.189096,-9.864913
33836234,-0.0553137,-0.02513338,-1.766971,0.08225398,1.138191,-9.980699
33856234,-0.05795003,-0.0285585,-1.785282,0.1459143,1.202763,-9.754113
33876206,-0.0648101,-0.03160313,-1.796741,0.04678666,1.403565,-9.957461
33896567,-0.07034575,-0.02610495,-1.803061,0.1200714,1.078729,-9.63302
33916266,-0.0683177,-0.02322212,-1.804772,0.1342052,1.380664,-10.09298
33936192,-0.06497941,-0.02003966,-1.803928,-0.08658825,1.551963,-9.785588
33956279,-0.05344036,-0.01061086,-1.786853,0.08597282,1.789832,-9.873796
33976433,-0.05741698,-0.009765851,-1.756492,-0.1069945,1.750646,-9.843365
33996573,-0.07090241,-0.02176754,-1.706258,0.489308,1.406953,-10.40968
34016234,-0.07212994,-0.03427272,-1.642622,0.3082526,1.015774,-9.112679
34036192,-0.05528757,-0.03416951,-1.582416,0.7528996,0.6931747,-9.418774
34056246,-0.03448943,-0.05157947,-1.526927,-0.794194,1.05712,-10.38743
34076214,-0.02718809,-0.05080016,-1.447254,-1.438239,1.354352,-9.422786
34096608,-0.01015264,-0.05541489,-1.341774,-1.765881,1.581045,-10.18431
34116274,-0.02451912,-0.04858616,-1.210282,-1.516984,1.684806,-9.632459
34136421,-0.02416367,-0.03944513,-1.068522,-1.419356,1.873328,-9.711935
34156281,-0.02123506,-0.0290436,-0.9238687,-1.382189,1.755598,-9.69859
34176210,-0.02413666,-0.01584837,-0.7826604,-1.300674,1.875656,-9.683955
34196564,-0.01710801,-0.01100746,-0.6449196,-1.487989,1.661952,-9.836492
34216270,-0.01962184,-0.001013899,-0.5022891,-1.794001,1.44997,-9.413766
34236210,-0.01006425,0.00419641,-0.3398669,-1.955637,1.382084,-10.07958
34256259,-0.006965125,0.007069381,-0.1754572,-1.558878,0.61978,-9.723928
34276221,-0.0002100496,0.0142113,-0.01879048,-1.204375,0.2265364,-9.711708
34296829,0.0116735,0.04167701,0.1008233,-0.05077685,0.08116657,-9.409561
34316215,0.01168676,0.05840468,0.1583668,0.5165603,-0.1337619,-9.950037
34336213,0.01118663,0.07312042,0.1687233,0.3097518,-0.2686509,-9.838965
34356281,0.0118662,0.07067967,0.1613368,0.05804251,-0.486812,-9.866098
34376241,0.003790958,0.05261904,0.1486506,0.2943264,-0.667182,-10.36961
34396572,-0.01715654,0.03220963,0.1384313,0.04715979,-0.2989345,-9.465407
34416233,-0.01119264,0.01849055,0.1333222,0.2605369,0.09165353,-9.742672
34436233,-0.02007422,0.01179023,0.124262,0.294267,-0.1853344,-9.7025
34456418,-0.01809045,0.01468515,0.1150551,-0.02531143,-0.08705374,-9.466315
34476196,-0.01569302,0.01061241,0.117948,0.09622358,-0.3931203,-10.2193
34496599,-0.02201268,0.00889875,0.1247522,0.2007037,-0.3152942,-9.635226
34516244,-0.02444202,0.006961581,0.1279657,0.2624975,0.08959714,-9.87244
34536241,-0.01915363,0.007554429,0.127692,0.2368066,0.09871265,-9.542373
34556279,-0.01065848,0.009731887,0.1219571,0.3199958,0.004519936,-9.917104
34576266,-0.01326043,0.00949889,0.11702,0.2091042,-0.322513,-9.852481
34596574,-0.002154968,0.01006285,0.1165807,0.1933108,0.1120327,-9.931184
34616465,0.005038897,0.009029566,0.1184908,0.3926107,-0.2707394,-9.802903
34636200,-0.002295431,0.008008601,0.1150526,0.3872401,-0.06092166,-9.851802
34656215,0.001114209,0.001177262,0.1137027,0.3516033,-0.1474871,-9.668771
34676217,0.005591447,-0.008195123,0.1109524,0.30854,-0.2725714,-9.987222
34696578,-0.00087739,-0.01932468,0.1099839,0.2879493,-0.3408727,-9.854836
34716246,-0.006695594,-0.02575827,0.1070782,0.3476439,-0.04387897,-9.732586
34736217,-0.008219258,-0.02984846,0.1022215,0.3241034,-0.1053964,-9.771487
34756226,-0.008901577,-0.02297846,0.09923252,0.1216948,-0.09989781,-9.513202
34776416,-0.002212042,-0.01828273,0.09839649,0.2622889,-0.2315084,-9.9437
34796573,-0.00311368,-0.01260204,0.09466098,0.2878817,-0.08582163,-9.723414
34816247,-0.0007893012,-0.01371062,0.08666988,0.2707898,-0.05055789,-9.860087
34836184,-0.001395936,-0.01112281,0.08128529,0.09220375,-0.1605865,-9.685392
34856257,-0.00332843,-0.004661586,0.07945297,0.06929462,-0.07693725,-9.97355
34876233,-0.002430699,0.0004138277,0.08077171,0.3180166,-0.1451704,-9.83923
34896574,-0.001325348,0.003347596,0.08143351,0.3409556,-0.07179642,-9.721471
34916277,0.000678658,0.001988382,0.08075235,0.253005,-0.216718,-9.624292
34936422,0.003845835,0.0003325185,0.08367102,0.2082738,-0.1923381,-9.881831
34956255,0.002083564,-0.0004522468,0.08921596,0.2807885,0.01908884,-9.68541
34976221,0.006938898,-0.01121623,0.09073918,0.4545792,-0.1478751,-10.20574
34996568,-0.005989518,-0.01880748,0.08254115,0.3417987,-0.1799537,-9.706114
35016214,-0.009808407,-0.02189593,0.07256732,0.1751494,-0.1245697,-9.756577
35036214,-0.01294666,-0.0176162,0.07138966,0.5838775,-0.2769183,-10.02065
35056246,-0.02630176,-0.00751477,0.05833147,1.265363,0.01658763,-9.447756
35076238,-0.02083486,-0.008481941,0.02957494,1.094891,0.1447044,-9.517381
35096878,0.006675572,-0.05120414,0.02590406,-1.648097,-0.2280244,-10.33817
35116238,0.01634136,-0.05364275,0.07453185,-2.03789,-0.06431308,-8.338878
35136200,0.04503673,-0.06340108,0.1607743,-2.808812,0.0560694,-10.37276
35156257,0.03425301,-0.04800081,0.2733471,-2.220551,0.577317,-9.293203
35176201,0.04537458,-0.04810219,0.3889022,-2.325738,0.3602878,-9.926874
35196573,0.0343389,-0.03435587,0.5013927,-2.241982,0.454703,-10.46108
35216235,0.02200288,-0.01438649,0.6068605,-2.129946,0.5315527,-9.011831
35236206,0.02483795,-0.004540409,0.7106974,-2.652653,0.3302564,-9.536386
35256461,0.03237842,0.006459111,0.8190692,-2.728102,0.4951906,-10.14552
35276223,0.03507403,0.007563171,0.9396447,-2.443322,0.5342687,-9.767427
35296570,0.03801645,-0.004636532,1.062403,-2.888802,0.3852902,-10.23587
35316268,0.03122496,-0.00397146,1.200468,-2.443474,0.1273728,-9.489324
35336195,0.02200072,0.0005315793,1.331,-2.410203,0.04980936,-9.794316
35356267,0.01183992,0.01286026,1.457945,-1.92124,-0.2226372,-9.446477
35376239,0.01260842,0.01818287,1.577139,-1.702911,-0.7567533,-9.613263
35396581,0.02043246,0.02331879,1.69741,-1.674118,-1.040499,-9.470684
35416471,0.02849838,0.03362835,1.817745,-1.700254,-1.175679,-9.45603
35436219,0.03453761,0.05531706,1.922036,-0.1225318,-1.541581,-10.26795
35456294,0.01905107,0.06673767,1.990729,0.1893345,-2.049117,-10.29271
35476252,0.01814267,0.06339811,2.026154,0.1995226,-2.562873,-10.06412
35496572,0.0209277,0.05606428,2.033516,-0.0748787,-2.689205,-9.40758
35516233,0.03511363,0.0520905,2.022229,0.1063633,-2.723616,-9.944859
35536222,0.03402957,0.05058104,1.979253,0.6283381,-2.330291,-10.23674
35556286,0.0263944,0.03824121,1.896765,0.660032,-1.601888,-9.795679
35576442,0.03162047,0.03270371,1.796483,0.4182619,-1.391038,-9.754975
35596554,0.03105795,0.02586932,1.701923,0.001298313,-1.540421,-9.654292
35616226,0.0388233,0.02571861,1.632303,0.08416738,-1.765029,-10.0277
35636221,0.02958426,0.02509738,1.588707,0.1936306,-1.352154,-9.576834
35656266,0.03517858,0.02189919,1.559923,0.2814829,-0.9790154,-9.594159
35676213,0.0382959,0.02254629,1.532282,0.2617023,-0.8698718,-9.654495
35696549,0.05171814,0.02311901,1.50134,0.2661729,-1.017093,-9.84185
35716245,0.05662319,0.02344587,1.472953,0.1377786,-1.202635,-9.72478
35736432,0.06618503,0.0297879,1.449503,0.1402862,-1.323748,-9.686512
35756265,0.06160468,0.03551331,1.422189,0.3163708,-1.778157,-9.95697
35776228,0.05986894,0.04076727,1.370546,0.8253403,-1.921646,-9.791194
35796571,0.05718265,0.03544741,1.281882,1.201583,-2.169512,-10.08788
35816224,0.04012875,0.02266434,1.152085,0.9482521,-1.753156,-9.588204
35836220,0.03135669,0.008949909,1.00851,0.6659679,-1.224661,-9.807992
35856264,0.02232375,-0.00143632,0.860604,0.4942242,-0.8198504,-9.716082
35876215,0.02496146,-0.006293516,0.7365496,0.3788058,-0.6496362,-9.742275
35896822,0.02727782,-0.005077253,0.6309607,0.50438,-0.6381408,-9.81824
35916224,0.02508109,-0.003770733,0.5386615,0.4787255,-0.7812673,-9.718461
35936237,0.02503674,-0.003756547,0.4616038,0.4820801,-0.8925463,-9.868016
35956254,0.01876234,0.0009662809,0.392022,0.5375592,-0.7414162,-9.698942
35976212,0.01776308,0.005025472,0.3218618,0.4815291,-0.7218322,-9.706916
35996572,0.01465301,0.007469443,0.2523437,0.5281085,-0.5963952,-9.870523
36016238,0.009637421,0.009036396,0.1858231,0.3639578,-0.2202336,-9.728437
36036224,0.007946624,0.008602495,0.1298855,0.2785829,0.02865433,-9.861663
36056435,0.003635801,0.005370894,0.08921222,0.2687213,-0.1220035,-9.775471
36076190,0.000788003,0.004589166,0.06397903,0.2172366,-0.03453615,-9.691677
36096562,0.0002434225,0.005172709,0.05052572,0.1078407,-0.0007484779,-9.738423
36116256,0.00151778,0.008794371,0.04494926,0.1187513,0.08419225,-9.69613
36136259,0.005818828,0.00827892,0.04484781,0.2990089,-0.1564147,-9.975245
36156262,0.001289087,0.004719159,0.04522502,0.3053316,-0.1823702,-9.919106
36176176,-0.0077352,-0.003693457,0.04714585,0.1193389,-0.02284876,-9.661023
36196564,-0.005690604,-0.008772929,0.05620442,0.1117857,0.1265009,-9.649414
36216461,-0.005398918,-0.009696551,0.06576932,0.3286284,-0.1935582,-9.849508
36236215,-0.007788423,-0.007822821,0.06562424,0.2065968,-0.1784942,-9.738026
36256235,-0.004389322,-0.001759911,0.06106864,0.1653047,0.1017904,-9.830936
36276225,-0.001379332,-0.0003066982,0.05578776,0.258596,0.01731827,-9.816353
36296597,0.003282725,-0.001859884,0.05049576,0.3385043,-0.0483759,-9.828344
36316256,0.004680919,-0.003211974,0.04540217,0.2560356,-0.06481311,-9.749138
36336202,0.003119766,-0.00593983,0.04038254,0.1924022,-0.08880638,-9.759853
36356285,0.001149682,-0.008363008,0.03824077,0.128023,-0.107391,-9.787111
36376456,-0.0006600786,-0.008504834,0.04211888,0.2499117,-0.2145902,-9.771752
36396555,-0.002088599,-0.01057647,0.04756308,0.3327032,0.03258519,-9.799477
36416274,0.001050368,-0.009750067,0.04931525,0.2358481,0.1513542,-9.73273
36436194,0.004925463,-0.004932191,0.04515744,0.2015657,0.1403704,-9.746872
36456256,0.009849348,-0.002268243,0.03868542,0.1710901,-0.1309738,-9.873147
36476224,0.01205623,-0.001033238,0.0339077,0.1473786,-0.1720027,-9.774096
36496591,0.01318647,-0.0001781191,0.03338407,0.3359468,-0.1496863,-9.749224
36516223,0.01432175,0.0002566582,0.03214605,0.3533557,-0.0005393881,-9.751718
36536456,0.01538435,0.001882046,0.02841372,0.2109648,0.09340663,-9.782623
36556266,0.01476073,0.00419565,0.02408516,0.1776508,-0.2054401,-9.745702
36576247,0.01378635,0.005268902,0.01987274,0.1186764,-0.1484867,-9.829363
36596572,0.00934994,0.003696562,0.01853192,0.2245202,-0.1897912,-9.869766
36616231,0.002228182,0.0003159842,0.01962934,0.2474939,-0.1378121,-9.768447
36636217,-0.001773259,-0.00505122,0.0241055,0.4488273,-0.1487518,-9.794886
36656263,-0.004906646,-0.008194301,0.02632608,0.5018087,-0.01257576,-9.755869
36676191,-0.004449743,-0.009320386,0.02595525,0.4350215,0.01010767,-9.733636
36696799,-0.001456703,-0.009413099,0.02434282,0.2835496,-0.09503676,-9.780542
36716246,0.0007235093,-0.008552531,0.02139796,0.2951505,-0.1080517,-9.788559
36736215,0.0009339779,-0.007275826,0.0172712,0.2873503,-0.1070961,-9.79379
36756336,0.0008701453,-0.006460698,0.01369494,0.3932763,-0.1148803,-9.820045
36776211,0.0005178837,-0.005568245,0.01102181,0.3935167,-0.1925967,-9.727863
36796570,-0.0003912268,-0.004098517,0.008947669,0.3471658,-0.06480858,-9.77335
36816247,0.0004161974,-0.003456079,0.007036133,0.4537982,-0.1071594,-9.810371
36836175,-0.0001625388,-0.001955467,0.004205312,0.498952,-0.08334086,-9.781356
36856483,0.0001036507,-0.000494619,0.00445632,0.5246121,-0.2044274,-9.780945
36876243,-0.0005803798,0.0007667826,0.004363885,0.5244692,-0.1361217,-9.767397
36896547,-0.0003533968,0.001007769,0.002021926,0.4482654,-0.1664019,-9.779164
36916246,-0.0001466646,0.0006110148,0.0008332008,0.3170967,-0.2698523,-9.776283
36936200,-0.0002778189,-0.0005301453,0.001272772,0.2160897,-0.1951943,-9.773966
36956285,-0.0004013129,-0.001932394,0.0004719741,0.05270891,-0.1018459,-9.786996
36976220,-3.71069e-05,-0.002580812,-0.001113911,-0.1172483,-0.1520507,-9.767284
36996614,-0.0002257416,-0.002253539,-0.00136967,-0.2569932,-0.1678405,-9.773767
37016500,-0.0003921753,-0.00161921,-0.0008288347,-0.2914301,-0.1254465,-9.79095
37036229,-0.000545142,-0.0009710702,-0.0006637134,-0.2857184,-0.1315509,-9.786359
37056259,-0.0003929942,-0.0006717282,-0.0002544585,-0.2466382,-0.1588964,-9.785884
37076242,-0.0003809738,-0.0003839532,0.0004994839,-0.1951402,-0.1370611,-9.78213
37096598,-0.0002365196,-0.0002098538,0.0003611704,-0.1948199,-0.124814,-9.783271
37116219,0.0001168363,-0.0006397932,0.0001037592,-0.2057123,-0.1670886,-9.787479
37136225,0.0004911665,-0.001086379,0.0001405125,-0.1363492,-0.1582993,-9.791574
37156275,0.000211245,-0.0005474632,-1.365444e-05,-0.06339275,-0.1328891,-9.789154
37176430,-0.00010746,-7.010122e-05,-9.558978e-05,-0.05020645,-0.159812,-9.786376
37196648,-0.000284573,0.0001915542,5.850311e-05,-0.05413191,-0.1573928,-9.778028
37216218,-7.869959e-05,-0.00028992,9.590524e-05,-0.07928745,-0.1355887,-9.782448
37236260,0.0003426776,-0.0006857528,4.635597e-05,-0.1382899,-0.1576262,-9.769412
37256254,0.0005835604,-0.0008140496,0.0001867408,-0.1505522,-0.1531719,-9.772811
37276229,0.000528438,-0.00122343,0.0001613981,-0.1113659,-0.1426064,-9.790571
37296585,0.000373193,-0.001290516,-8.660924e-05,-0.08825558,-0.1531906,-9.791713
37316254,0.0004166049,-0.001245683,-8.953065e-05,-0.07887608,-0.1586152,-9.795628
37336454,0.0007945669,-0.001603387,-2.944083e-05,-0.07714054,-0.1523075,-9.789194
37356250,0.0009498418,-0.001921166,0.0002278722,-0.100324,-0.1566494,-9.78395
37376232,0.000876034,-0.001727588,0.0004280034,-0.119436,-0.1457545,-9.780382
37396576,0.000560542,-0.001538736,0.0002975398,-0.1189398,-0.1314428,-9.784966
37416219,0.0004293564,-0.001490346,0.0002024863,-0.09942724,-0.1475636,-9.792652
37436238,0.0003896281,-0.001601342,0.0002688764,-0.0824053,-0.1493501,-9.798324
37456258,0.0003780606,-0.001879493,0.0003030685,-0.08262148,-0.1424064,-9.80654
37476248,0.0003195193,-0.001877967,0.0003035289,-0.1072535,-0.1467314,-9.805218
37496830,0.0001910825,-0.00165503,0.0004633213,-0.1184346,-0.1499044,-9.782985
37516233,0.0002438899,-0.001196488,0.000462311,-0.1050179,-0.1415287,-9.779069
37536220,0.0004588248,-0.001013501,0.0002062342,-0.1096297,-0.1558697,-9.780347
37556255,0.0003537076,-0.0006966118,7.532936e-05,-0.09291901,-0.1641628,-9.777401
37576182,0.0003242433,-0.0004116506,-9.124948e-05,-0.08701747,-0.1499814,-9.788215
37596565,0.0002220257,-0.0003578299,8.132423e-05,-0.1030878,-0.1393166,-9.776548
37616228,0.0003161956,-0.0006831532,0.0001561688,-0.1154556,-0.1417047,-9.779999
37636217,0.0002737868,-0.0006512566,9.671646e-05,-0.1188834,-0.1474045,-9.784328
37656495,0.0004783817,-0.0005513761,-6.705817e-05,-0.1208253,-0.1575969,-9.788838
37676216,0.0002821531,-0.0001332538,2.19201e-05,-0.1194094,-0.1548772,-9.797567
37696567,2.17163e-05,2.754097e-06,0.0001436031,-0.1070538,-0.158926,-9.798857
37716265,0.0002000686,-3.690617e-05,0.000342502,-0.1030204,-0.1639894,-9.795545
37736213,0.0004621302,-0.0003146325,0.0006641107,-0.1010478,-0.1583783,-9.784361
37756266,0.0003687523,-0.0002822761,0.0009351455,-0.09962214,-0.1554032,-9.77282
37776207,0.0006439959,-0.000781178,0.0008209724,-0.1038526,-0.1487543,-9.776097
37796601,0.001097537,-0.001127576,0.000516093,-0.09720187,-0.1483928,-9.785009
37816463,0.001422888,-0.0009127411,0.0002087755,-0.1019042,-0.1420464,-9.797246
37836226,0.001610397,-0.0004219741,1.327433e-05,-0.1003124,-0.1483033,-9.801429
37856258,0.001470738,-0.0001772771,-9.81993e-05,-0.1060553,-0.1427428,-9.792269
37876180,0.001165114,-0.0001714665,-1.440368e-05,-0.09652746,-0.1501813,-9.778917
37896618,0.001100695,3.815049e-05,-6.496702e-06,-0.09763322,-0.1607932,-9.770957
37916258,0.0006791591,5.558541e-05,0.0001613884,-0.1108419,-0.1444659,-9.780231
37936229,0.000424593,-0.0003588249,0.0002345023,-0.1101339,-0.1428688,-9.790948
37956260,0.0003861332,-0.0006569161,0.0002596591,-0.0986554,-0.1490164,-9.789469
37976374,0.0002800017,-0.0009087816,4.214539e-05,-0.09866918,-0.1519925,-9.789458
37996595,0.0002127207,-0.001482483,8.736717e-05,-0.1002028,-0.1488777,-9.794464
38016207,1.389647e-05,-0.001787312,0.0001673633,-0.1064263,-0.1462302,-9.801857
38036221,-0.0001409794,-0.001774773,0.0002860712,-0.09927404,-0.1440742,-9.788688
38056308,-0.000191062,-0.002013806,0.0004131277,-0.1073515,-0.1457978,-9.786125
38076215,7.971083e-05,-0.002115075,0.0001977086,-0.1035327,-0.1444818,-9.788009
38096572,0.0002273021,-0.002224445,5.912526e-05,-0.09805738,-0.1450184,-9.781753
38116239,0.0001195783,-0.002228262,9.824179e-05,-0.09983905,-0.1480043,-9.779043
38136417,0.0001768713,-0.002119497,0.0001185305,-0.09704081,-0.1536472,-9.785727
38156242,0.000157395,-0.001851064,7.910907e-05,-0.1001396,-0.1462044,-9.788363
38176162,0.0001430331,-0.001108398,-0.0001134705,-0.1017298,-0.15318,-9.775612
38196610,9.490575e-05,-0.001020523,-0.0001895416,-0.1032318,-0.153525,-9.784785
38216210,0.000121758,-0.0007870335,-0.0001972076,-0.09931654,-0.1504324,-9.784782
38236226,0.0002844862,-0.0002067518,-0.000102172,-0.09306625,-0.1493886,-9.792849
38256260,0.0008570555,-0.0002327337,-9.166946e-05,-0.09498388,-0.1487817,-9.794974
38276184,0.0009706452,-0.0002334029,-0.0001253674,-0.09869017,-0.1478164,-9.782328
38296825,0.0007996443,-0.0002361707,-0.0001302695,-0.1026825,-0.1468147,-9.788607
38316242,0.0008072946,-0.0002741211,-0.0003131159,-0.1120474,-0.1485524,-9.786821
38336221,0.000397546,1.303282e-05,-0.0003833472,-0.1081318,-0.1488455,-9.784756
38356265,-0.0001089278,4.455007e-05,-0.0004577741,-0.1012765,-0.143794,-9.777361
38376201,-0.0001764294,-0.0001625704,-0.0004871276,-0.1124155,-0.1461526,-9.782571
38396562,-1.182477e-05,-0.0003452957,-0.0004241101,-0.1023704,-0.1475012,-9.781855
38416238,-0.0001071353,-0.000338196,-0.0003030753,-0.09115355,-0.1479865,-9.784125
38436224,-1.011491e-05,-0.0004843322,-0.0002106769,-0.0891273,-0.1491689,-9.783054
38456460,0.0005040906,-0.0009980004,-0.0002097856,-0.0900352,-0.1398402,-9.780614
38476214,0.0006202384,-0.0006805147,-0.0001150757,-0.09839509,-0.1392485,-9.786687
38496579,0.0004864364,-0.0001646875,-2.987339e-05,-0.08854462,-0.1428706,-9.788633
38516234,-5.141104e-05,0.0004280326,4.866031e-05,-0.08801264,-0.1450884,-9.794966
38536219,-0.000702571,0.0006189646,2.329852e-05,-0.1007713,-0.1417686,-9.795104
38556218,-0.0009169857,0.0006081623,-5.058186e-05,-0.1019283,-0.1438245,-9.794128
38576218,-0.0009349896,0.0007794675,-3.386317e-05,-0.09700096,-0.1548532,-9.787653
38596565,-0.0007217121,0.0005624029,1.463963e-05,-0.09441879,-0.1582596,-9.778786
38616415,-0.0005736126,-0.0001243764,-3.950246e-05,-0.0913294,-0.1537986,-9.774139
38636206,-0.0006376209,-0.0003905024,7.04589e-05,-0.1105731,-0.1493194,-9.783484
38656249,-0.0003342607,-0.0004274845,0.0001909496,-0.1174686,-0.1471809,-9.78439
38676217,4.642059e-05,-0.0005164176,0.000243175,-0.1062019,-0.1411202,-9.786182
38696587,0.0002747595,-0.0004962608,0.0001760815,-0.1026878,-0.140549,-9.779032
38716209,0.0004495246,-0.0006317717,0.0002230244,-0.1036589,-0.1496236,-9.773761
38736185,0.0003252482,-0.0009965583,0.0004273599,-0.1060012,-0.1547745,-9.781137
38756253,0.0002455201,-0.001420374,0.0005399163,-0.09986025,-0.1550869,-9.773174
38776445,0.0005842489,-0.001367464,0.0004976087,-0.09660183,-0.151934,-9.771447
38796589,0.00100354,-0.001707654,0.0004487396,-0.09233369,-0.1443926,-9.762016
38816285,0.001133185,-0.00152329,0.0002741826,-0.09514697,-0.1528641,-9.775004
38836210,0.001208434,-0.001680107,0.0002550968,-0.09615476,-0.1513403,-9.785897
38856268,0.001257595,-0.001707131,0.0003496794,-0.1015303,-0.1528002,-9.793317
38876228,0.001249509,-0.001613374,0.0005428823,-0.1037455,-0.1574415,-9.788754
38896601,0.001344446,-0.001387102,0.0007205415,-0.1091025,-0.1597707,-9.781811
38916223,0.0008343267,-0.000957319,0.0007377273,-0.1072322,-0.1528895,-9.79069
38936445,0.0007008869,-0.0007836458,0.0006289924,-0.1068495,-0.1440519,-9.785381
38956268,0.0003838431,-0.0006130018,0.0005231531,-0.1052458,-0.1499873,-9.774723
38976233,0.0002862381,-0.0006275934,0.000564568,-0.0900511,-0.1583873,-9.772519
38996577,0.000295815,-0.0004175999,0.000672702,-0.08777881,-0.1550246,-9.781172
39016212,0.0001670909,-0.0004564301,0.0007067253,-0.0983514,-0.1570656,-9.77725
39036186,0.0002286352,-0.000630115,0.0007776731,-0.1028853,-0.1520676,-9.778003
39056248,0.0002975902,-0.0007616553,0.0006613313,-0.09616849,-0.1528033,-9.765378
39076214,0.0002323569,-0.0007631395,0.0005207786,-0.08999012,-0.1571559,-9.775028
39096826,0.0003999352,-0.001248311,0.0004214216,-0.08967099,-0.1563551,-9.781219
39116240,0.0008608731,-0.001349744,0.0003440433,-0.1000948,-0.1437499,-9.779089
39136148,0.0009543535,-0.0008527339,0.0001474922,-0.1002913,-0.1429839,-9.776616
39156237,0.000831542,-0.000215854,3.039277e-05,-0.1093252,-0.1412329,-9.776165
39176239,0.0006221514,0.000385084,-5.420282e-05,-0.1104129,-0.1378245,-9.783488
39196568,0.0005624193,0.0005301874,-3.03935e-05,-0.1093158,-0.1360989,-9.783179
39216255,0.0003055901,0.0006655772,-2.812708e-05,-0.1033043,-0.14406,-9.79341
39236184,0.0003926085,0.000573976,-0.0001071871,-0.1036284,-0.1526401,-9.789161
39256442,0.0004842578,0.0003955705,-0.0001175192,-0.1105668,-0.151014,-9.783067
39276243,0.0003748818,0.0006110703,3.066188e-05,-0.1107153,-0.1435716,-9.784422
39296554,9.179272e-05,0.001027209,0.0004757741,-0.1063169,-0.142158,-9.774154
39316284,0.000203428,0.0006117146,0.0007310755,-0.1139577,-0.1461814,-9.796438
39336278,0.0005803291,3.571552e-06,0.0007757348,-0.1108304,-0.144541,-9.795178
39356259,0.0009834653,-0.0003714161,0.000724914,-0.103849,-0.1532309,-9.779813
39376224,0.001204979,-0.0007485814,0.0006541476,-0.1111173,-0.153892,-9.775885
39396598,0.0009275837,-0.0005047975,0.0006913475,-0.1123779,-0.1406267,-9.777942
39416475,0.0004737739,8.949935e-05,0.000690097,-0.1148516,-0.1409654,-9.774511
39436227,0.0002284393,0.0002843924,0.0007772923,-0.1108842,-0.1347591,-9.784517
39456280,2.809391e-05,0.0002603208,0.0008000562,-0.108752,-0.1449693,-9.789295
39476245,-3.730231e-05,-0.0001189485,0.0006932145,-0.1046064,-0.1535505,-9.788288
39496569,-8.870764e-05,-0.0006969827,0.0006098718,-0.09750365,-0.1517201,-9.789289
39516220,-0.0001866524,-0.0009947944,0.0004537718,-0.1058045,-0.1469691,-9.79054
39536216,-0.0001335827,-0.0009669762,0.000120664,-0.1092389,-0.1480233,-9.794456
39556244,-0.0003979957,-0.0005884524,2.943213e-05,-0.1019861,-0.1515825,-9.782112
39576413,-0.0004227937,-0.0006163387,6.926678e-05,-0.1059797,-0.1569652,-9.777484
39596552,-0.0003555184,-0.0005467423,0.0001910579,-0.111419,-0.1535977,-9.776453
39616237,-9.851047e-05,-0.0008030172,0.0001645641,-0.115508,-0.1498692,-9.77914
39636209,8.783597e-05,-0.0009935327,3.942966e-05,-0.118642,-0.1521919,-9.789428
39656256,0.0004419452,-0.001008799,0.0001467102,-0.1109173,-0.1481657,-9.793873
39676200,0.0002982136,-0.0005272189,0.000390863,-0.1100156,-0.1432636,-9.787864
39696565,0.0001078285,-0.0001558895,0.0004683791,-0.1061422,-0.1363184,-9.781648
39716237,-0.0002552869,0.0003369566,0.0004324647,-0.1061331,-0.1478174,-9.78211
39736420,-0.000721771,0.0004116116,0.0004149149,-0.1010511,-0.1640948,-9.779872
39756259,-0.001040166,0.0001577926,0.0002740456,-0.09010424,-0.1571563,-9.784819
39776233,-0.0009112598,-5.241205e-06,0.0001793189,-0.0883189,-0.1503506,-9.786991
39796552,-0.0003750332,-0.0005037643,-6.243753e-05,-0.09908507,-0.1528905,-9.784631
39816269,0.0002294614,-0.001292106,2.72822e-05,-0.1013594,-0.1535621,-9.778309
39836223,0.0002298681,-0.002124002,-6.637606e-05,-0.09531545,-0.1519824,-9.781888
39856270,6.249192e-05,-0.00259222,-6.429975e-05,-0.1006452,-0.1503153,-9.786574
39876246,8.725467e-05,-0.002142953,-9.624143e-05,-0.1070369,-0.1546325,-9.795868
39896843,0.0003558404,-0.001623369,2.371945e-05,-0.09672499,-0.144622,-9.79327
39916230,0.0003364688,-0.001191315,0.0003106477,-0.09590559,-0.146873,-9.781168
39936227,0.0003606129,-0.0006003982,0.0004148301,-0.09494801,-0.1552001,-9.79343
39956249,0.0003863011,-0.0001721787,0.0002407539,-0.1062737,-0.1535436,-9.796273
39976187,0.0004380512,4.603964e-06,5.459575e-06,-0.1079191,-0.1522563,-9.788189
39996566,0.0003096695,0.0002887284,-0.0002118407,-0.103937,-0.152113,-9.789824
40016239,0.0003222238,0.0002676386,-0.0004145094,-0.100915,-0.1528094,-9.788424
40036225,7.65824e-05,0.0003634979,-0.0004162181,-0.09405437,-0.1503885,-9.784287
40056485,-0.000519446,0.0008444972,-0.000306127,-0.09802092,-0.1546546,-9.778072
40076224,-0.0008659175,0.001129047,-0.0002634299,-0.09511831,-0.1565662,-9.777457
40096553,-0.0008814341,0.0007184572,-1.999207e-05,-0.09844677,-0.1522175,-9.784842
40116241,-0.0009854514,7.684614e-05,0.0002312508,-0.09775586,-0.1545444,-9.788676
40136296,-0.001188879,-6.051453e-05,0.0004252112,-0.09990712,-0.1539762,-9.798355
40156254,-0.0009272426,-6.16922e-05,0.0004560155,-0.09710912,-0.1545806,-9.788322
40176228,-0.0004552261,-0.0003489148,0.0004562706,-0.09582447,-0.168499,-9.787791
40196561,-0.0001428921,-0.0004527739,0.0005267881,-0.09051688,-0.1629204,-9.794529
40216459,-3.453781e-06,-0.001050963,0.0005114297,-0.08716902,-0.1554219,-9.78465
40236243,6.623672e-05,-0.001644178,0.0002729313,-0.08941396,-0.1563337,-9.775414
40256205,1.72327e-05,-0.00195833,0.0002089685,-0.1023988,-0.1551968,-9.777794
40276209,4.317819e-05,-0.001953489,0.0001466027,-0.1133945,-0.1587832,-9.797899
40296675,0.0004254982,-0.002186923,6.399013e-05,-0.1156159,-0.1573805,-9.808092
40316272,0.0005496831,-0.002079103,5.639361e-05,-0.1088522,-0.1532184,-9.802233
40336206,0.0003347371,-0.001525113,0.0002584293,-0.1060388,-0.1524069,-9.795961
40356270,0.0003025915,-0.0007684843,0.000206235,-0.09715787,-0.1541468,-9.789389
40376433,0.0004884176,-0.000199733,0.0002593944,-0.09232198,-0.1585162,-9.781832
40396660,0.0003683933,0.0002064351,0.0003920249,-0.0980899,-0.1525137,-9.779204
40416269,0.0004659116,-3.713092e-05,0.0005155506,-0.1057061,-0.1504591,-9.778706
40436201,0.0006435312,-0.0008796764,0.0003373493,-0.10498,-0.1486596,-9.78429
40456251,0.0009516536,-0.001646845,0.000140015,-0.1024464,-0.1455696,-9.785186
40476227,0.001037982,-0.001931357,6.235246e-06,-0.1033995,-0.1436762,-9.774727
40496599,0.000994711,-0.001872604,-5.312413e-05,-0.1087762,-0.1429806,-9.774663
40516221,0.001084064,-0.001562819,-0.0001414138,-0.1009572,-0.1545295,-9.776458
40536469,0.0009337795,-0.00120926,-0.0001489274,-0.1093404,-0.1610372,-9.790277
40556262,0.0006695208,-0.001075714,-6.008918e-05,-0.1124549,-0.1563206,-9.791911
40576218,0.0006573996,-0.0009340346,0.0001642642,-0.1049811,-0.1583758,-9.784928
40596610,0.0007942278,-0.0006215606,0.0002557871,-0.09493484,-0.162078,-9.773679
40616203,0.001128669,-0.0006063742,0.0002267406,-0.08966704,-0.1571756,-9.774391
40636210,0.001118619,-0.0003106355,9.305815e-05,-0.09129068,-0.1479333,-9.783459
40656255,0.00115325,3.283713e-06,-0.0001313783,-0.1021759,-0.1453548,-9.782705
40676201,0.001171547,2.264859e-05,-0.0002841963,-0.1038248,-0.1494907,-9.783563
40696884,0.00102759,0.0002578108,-0.0002462934,-0.09797473,-0.1566525,-9.782862
40716237,0.0008686211,-0.0001070176,-4.829874e-05,-0.09807003,-0.1574035,-9.793061
40736216,0.0002387305,-3.208709e-05,-1.535544e-05,-0.116739,-0.1605653,-9.802991
40756291,-9.770628e-05,-0.0003837695,0.0002541269,-0.1174565,-0.1569506,-9.79367
40776198,-0.000446872,-0.0005328584,0.0004923107,-0.09875552,-0.1534603,-9.793786
40796564,-0.0005812374,-0.0006501233,0.0005266998,-0.1042888,-0.1511209,-9.790722
40816227,-0.0005779837,-0.001151708,0.0005233531,-0.1109823,-0.1546225,-9.788621
40836251,-0.0004377454,-0.001487714,0.0005257635,-0.09989113,-0.1557746,-9.786632
40856472,0.0002909858,-0.002022523,0.0005554681,-0.08996104,-0.1566426,-9.79177
40876217,0.0004943628,-0.002298449,0.0006080092,-0.09194517,-0.1622469,-9.789854
40896562,0.0006678612,-0.002471651,0.0007581475,-0.09157129,-0.151091,-9.79
40916256,0.0003923444,-0.002483265,0.000701333,-0.09632304,-0.1529511,-9.783139
40936204,0.0002844214,-0.002521941,0.0006117821,-0.1000436,-0.1568321,-9.769558
40956255,0.0004406028,-0.002417774,0.0003465982,-0.09832793,-0.1530534,-9.780685
40976217,0.0004746027,-0.002113543,0.0001879002,-0.09752544,-0.1491619,-9.777503
40996577,0.0002607358,-0.001823839,-0.000116479,-0.09771091,-0.1462021,-9.764205
41016491,0.0003065528,-0.00143535,-0.0003266191,-0.105694,-0.1499054,-9.785878
41036218,3.887764e-05,-0.0007899702,-0.0002577451,-0.1022461,-0.150354,-9.787156
41056264,-0.0004327034,-0.0003856037,-6.13792e-06,-0.1017762,-0.1460581,-9.7811
41076215,-0.0006229575,-0.0003746712,1.241498e-07,-0.100885,-0.144694,-9.781282
41096583,-0.0005664206,-0.0009126174,-6.031862e-05,-0.09473509,-0.1439938,-9.774242
41116264,-0.0002837293,-0.001171129,6.65528e-05,-0.1045694,-0.1491535,-9.775627
41136197,-0.0004309622,-0.001476838,0.0002169091,-0.107639,-0.1466793,-9.791749
41156264,-0.0004008829,-0.001841122,0.0004291646,-0.1075863,-0.1459836,-9.80952
41176398,-0.0002753289,-0.002117527,0.0005397881,-0.1019475,-0.154696,-9.80813
41196594,0.0001004944,-0.002099638,0.0005228145,-0.09901119,-0.1545933,-9.793388
41216213,0.0002790178,-0.001396275,0.0003715699,-0.1089016,-0.1526354,-9.790673
41236226,0.001259206,-0.001767874,-0.0001729274,-0.1826519,-0.1000099,-9.82962
41256268,0.002916997,-0.001757962,-0.004529324,-0.1885465,0.1545313,-9.487996
41276221,0.004376947,-0.003366054,-0.00576026,0.1921939,-0.1303576,-9.890573
41296569,-0.001850224,-0.007476335,0.008422299,1.452482,-0.6328791,-10.74862
41316222,-0.04490379,-0.01440584,0.0254309,1.678889,0.06345542,-8.880673
41336420,-0.02763356,-0.0104136,0.02835008,2.036075,0.06690633,-9.030027
41356262,-0.02711467,-0.004560843,0.01139686,2.24351,-0.04992663,-10.74461
41376269,-0.03720233,0.006648856,-0.01562486,1.913896,0.1479077,-9.531251
41396547,-0.02904455,0.01637703,-0.04671099,0.9152948,0.2470206,-9.251404
41416244,0.001098557,0.004043361,-0.04371865,1.433371,-1.119083,-11.16961
41436226,-0.007641068,-0.003777141,0.00263739,1.470457,-0.240052,-8.928116
41456252,0.01003703,-0.01654962,0.04913348,2.483297,-0.1622663,-9.658833
41476186,-0.003077617,-0.001088879,0.0820371,2.45285,0.1219641,-9.261567
41496800,0.0200047,0.00274582,0.08861577,1.813981,0.01488168,-10.46755
41516241,-0.009126304,-0.009884409,0.06911536,1.508859,0.09585644,-10.55092
41536207,-0.01326707,-0.01025347,0.03603305,1.229723,0.3314226,-8.030729
41556255,0.02139498,0.0004532261,0.005513045,1.699137,-0.3111169,-9.964409
41576216,0.03120758,0.02665899,-0.01401331,1.851272,-0.2351435,-11.2228
41596591,-0.01095397,0.02492298,-0.02309633,1.506169,0.06538606,-9.853118
41616193,-0.0008117339,0.0147434,-0.01673708,1.676451,-0.1119914,-8.983375
41636202,0.04074895,0.0117029,-0.002271819,0.9450569,-0.3387164,-10.50695
41656468,0.02066538,0.0165628,0.04057109,0.4143177,0.2865286,-10.13522
41676200,0.0137933,0.01796414,0.1042174,0.5807704,0.7295032,-9.570407
41696580,0.009443224,0.01854196,0.1715389,0.8062139,0.7465237,-9.622993
41716248,0.009574659,0.01826662,0.2348967,0.9507198,0.6231866,-9.744651
41736189,-0.004571652,0.00490466,0.2861881,0.8800163,0.8049945,-9.915992
41756238,-0.003224525,0.005008986,0.3255289,0.6785427,0.4107488,-9.409888
41776220,0.0002433225,0.009672585,0.3551661,0.8387165,0.3674581,-10.26322
41796594,-0.001813804,0.01581568,0.3780915,0.5777199,0.1690223,-9.715857
41816467,-0.004169323,0.0152105,0.3975265,0.7318838,0.3871934,-10.07676
41836248,0.0003685996,0.007756468,0.4095897,0.4504214,0.1933352,-9.378088
41856278,-0.01188335,0.004229954,0.4241594,0.5830325,0.3034153,-10.54226
41876237,-0.00217885,-0.009771527,0.436968,0.0624139,0.6254138,-9.104527
41896627,0.01353474,-0.01366048,0.4509886,0.422582,0.4418893,-10.77034
41916222,-0.002932783,-0.002964518,0.4575652,0.3238741,0.406763,-9.056903
41936221,-0.01086826,-0.0003547099,0.4583581,0.7026892,0.5947785,-9.897516
41956252,-0.0009612213,0.001462962,0.4470648,0.6374085,0.3544024,-9.371298
41976374,-0.006094579,-0.009022725,0.4301489,0.6325819,0.4299403,-10.1262
41996562,-0.004267899,-0.01934697,0.411819,0.510563,0.605449,-9.517544
42016211,0.002508654,-0.02176178,0.3925632,0.559639,0.1736733,-9.802183
42036222,0.004434049,-0.01912711,0.3742274,0.5286255,0.06146284,-9.788324
42056210,0.01279005,-0.01521386,0.3493397,0.4982951,-0.08025809,-9.78807
42076211,0.006879447,-0.01469482,0.3239756,0.4287718,0.1415757,-10.22277
42096574,0.007929267,-0.01052286,0.3043578,0.2774551,0.279468,-9.304869
42116213,0.01465201,-0.01065196,0.2886665,0.3552319,0.2289976,-10.12048
42136430,0.01141576,-0.006085034,0.2797017,0.2255857,0.3233015,-9.37223
42156254,0.0195431,-0.006258456,0.2736544,0.3698024,0.1628504,-9.955914
42176216,0.0134555,-0.01015559,0.2688664,0.2970347,0.3245644,-10.2924
42196565,0.01080405,-0.01059367,0.2694022,0.0964283,0.06613661,-9.50867
42216199,0.005278271,-0.00430217,0.2706597,0.005183558,-0.5148683,-10.04433
42236191,0.0005696752,0.002534683,0.2718741,0.2894247,-0.3182021,-9.74382
42256247,0.004247571,0.0005884456,0.2616065,0.4066239,0.01794115,-9.809788
42276225,-0.0009010436,0.0002426204,0.2358525,0.03669089,0.06954196,-9.720336
42296795,-0.004667542,0.007256014,0.2096639,0.3280381,0.3283244,-9.753353
42316209,0.006546478,5.979621e-05,0.1738907,0.2838277,0.2165041,-10.13457
42336212,0.007243407,-0.001162124,0.1357401,0.2894663,0.3498747,-9.870342
42356251,0.01436743,-0.007127587,0.1006124,0.3566336,0.2449807,-10.10803
42376188,0.004906889,-0.005882609,0.0706896,0.2449356,0.3624888,-9.52981
42396600,0.003118926,-0.007582257,0.04984221,0.2358641,0.1414773,-9.969234
42416234,0.007143137,-0.002978838,0.0379718,0.05218179,0.0191858,-9.30861
42436204,0.01960166,0.001166827,0.02588055,0.02253016,-0.3405666,-10.33146
42456480,0.006960238,0.01028251,0.00385465,-0.2263168,-0.2953903,-9.564699
42476210,0.02720011,0.002582514,-0.04138112,-0.4570359,-0.4090708,-10.09193
42496559,0.02171655,0.008676791,-0.09964576,-0.6490112,-0.1954246,-9.549804
42516226,0.00521444,0.01412073,-0.151425,-0.8217577,-0.3895597,-9.941581
42536224,-0.006074766,0.004438682,-0.183389,-1.01139,-0.5276147,-9.713986
42556269,-0.005687054,-0.0003007817,-0.1918579,-0.8846454,-0.3099015,-9.451654
42576204,0.00358179,-0.01005413,-0.1848097,-0.8494915,-0.4012019,-9.760428
42596569,0.01030247,-0.0152514,-0.1669688,-0.6303295,-0.2053855,-9.786932
42616440,0.01883783,-0.02039563,-0.1509569,-0.5528361,0.05218364,-9.32999
42636238,0.01655637,-0.02278412,-0.1388125,-0.6427178,0.07666318,-9.978463
42656213,0.01030508,-0.02337063,-0.1221776,-0.7801719,0.1110185,-9.674818
42676194,0.01338079,-0.03029883,-0.1025189,-0.7318398,-0.1246045,-9.769456
42696611,0.01325413,-0.02892757,-0.0861753,-0.6481049,-0.05269491,-9.713449
42716232,0.007516601,-0.02980846,-0.070808,-0.816192,-0.04135114,-10.18218
42736183,0.001747355,-0.01849348,-0.05403871,-0.5840595,0.1662766,-8.952085
42756265,0.01418845,-0.02280563,-0.04160905,-0.6733799,-0.1219883,-10.1388
42776368,0.01330187,-0.01863701,-0.03384298,-0.5308672,-0.09472688,-9.933234
42796567,0.0176843,-0.02635253,-0.03376233,-0.7266924,-0.2430989,-9.844248
42816222,0.007259387,-0.02404013,-0.03075003,-0.7484059,-0.1349163,-9.490305
42836202,0.005422152,-0.02431861,-0.02429019,-0.8495108,-0.43177,-10.56004
42856302,-0.01053394,-0.006166484,-0.01486623,-0.6057471,0.2490096,-8.969758
42876176,0.0005587137,-0.01536238,-0.0080822,-0.5880381,0.1078425,-9.904971
42896593,-0.001283571,-0.00390312,-0.00902823,-0.4096026,0.2780232,-9.522948
42916243,0.002917817,-0.007865189,-0.01886876,-0.7025273,-0.01836676,-9.904417
42936410,0.009733938,-0.007657871,-0.03224449,-0.7230201,-0.2146994,-9.977184
42956268,0.008212525,-0.001808065,-0.04581384,-0.6139213,-0.1878315,-9.746375
42976190,0.01247293,0.003579416,-0.06598954,-0.4022218,-0.2473708,-9.50667
42996560,0.006808772,0.009707318,-0.09430563,-0.4527164,-0.1979095,-10.11551
43016224,0.001833415,0.0126138,-0.1205299,-0.7049971,-0.2525793,-9.782188
43036213,-0.005428507,0.02376602,-0.1389058,-0.7957672,-0.04499963,-9.729166
43056208,0.008077011,0.02630784,-0.1457408,-0.7586226,-0.3664839,-9.847177
43076221,0.01133504,0.02451397,-0.1461925,-0.7284797,-0.3786557,-9.683571
43096799,0.02462333,0.0236379,-0.139345,-0.6736462,-0.1094568,-9.878749
43116278,0.02731906,0.01939313,-0.1316051,-0.515619,-0.106938,-9.868196
43136188,0.02266419,0.01503436,-0.1282844,-0.5936963,-0.1218685,-9.592188
43156251,0.006737586,0.01032583,-0.1283251,-0.5106346,-0.3926094,-9.89572
43176224,-0.01619891,0.01031149,-0.1300967,-0.6092177,-0.1097328,-9.720136
43196574,-0.01653348,0.001722559,-0.1307476,-0.8025468,-0.2127854,-9.59794
43216271,-0.01358774,-0.01030488,-0.1275556,-0.7110475,-0.4459479,-10.01433
43236178,-0.02411086,-0.006863551,-0.12359,-0.6332013,0.04277293,-9.800443
43256465,-0.02021752,-0.0122784,-0.1223286,-0.6917413,-0.2253208,-9.631715
43276235,-0.0158957,-0.00421695,-0.1237448,-0.5566276,0.05498201,-9.738602
43296572,-0.01598804,-0.0003654153,-0.1263574,-0.5355505,-0.1561015,-10.04311
43316215,-0.01632126,-0.007670824,-0.1313601,-0.6902551,-0.3038593,-9.629766
43336221,-0.01359445,-0.01587388,-0.1317967,-0.6846651,-0.163876,-9.946109
43356273,-0.01672843,-0.02164932,-0.1297097,-0.6117906,-0.2476112,-9.549509
43376267,-0.01338365,-0.02558014,-0.1287319,-0.7948564,0.05108113,-10.2231
43396610,-0.02553565,-0.0194571,-0.1218871,-0.7590036,-0.196833,-9.148274
43416479,-0.01656773,-0.02784581,-0.1172535,-0.6571088,0.08015041,-9.800173
43436224,-0.0205004,-0.02502285,-0.1157199,-0.5857543,-0.1111418,-9.910154
43456229,-0.01597187,-0.008245028,-0.1170222,-0.6876336,0.18784,-9.516136
43476215,-0.01053737,8.741272e-05,-0.11753,-0.4891072,-0.4983268,-10.15331
43496557,-0.02640493,0.004976488,-0.1221291,-0.5704038,0.1286196,-9.659688
43516239,-0.01297252,0.002277407,-0.1252145,-0.7510325,-0.04524352,-9.455896
43536226,-0.01241218,-0.0002378123,-0.125016,-0.4567491,-0.336716,-9.925736
43556283,-0.01217923,-0.001505923,-0.1262425,-0.6326178,0.05678284,-9.678201
43576426,0.0008738155,-0.009097247,-0.1245955,-0.6300756,-0.2031397,-10.10064
43596550,-0.004667017,-0.01536902,-0.1203617,-0.6007606,-0.3428138,-9.758328
43616238,-0.01158273,-0.02497289,-0.1142108,-0.6909095,-0.07162057,-9.960228
43636200,-0.008993008,-0.0303131,-0.1075957,-0.6568954,0.1292938,-9.65027
43656271,-0.003672711,-0.03333466,-0.1073235,-0.8539914,-0.1570571,-9.887121
43676212,-0.009196598,-0.03117538,-0.1062636,-0.8473054,-0.0385142,-9.773969
43696612,0.00471956,-0.02941275,-0.09668166,-0.6403487,0.2532382,-10.1843
43716236,0.03366089,-0.01311759,-0.06060238,0.05004622,0.03883851,-9.521093
43736395,0.0482534,-0.006458244,0.003971909,0.6256914,0.2004151,-9.876502
43756234,0.04711583,0.002173831,0.08396076,0.7720606,0.4018951,-9.555364
43776197,0.03631023,0.0001373765,0.1646183,0.9154248,0.7126781,-9.967422
43796633,0.02449597,0.003557634,0.2264624,0.8172174,0.7788826,-9.379162
43816250,0.0122994,0.005639022,0.2781883,0.7059074,0.3504509,-10.21837
43836171,-0.007873511,0.005297562,0.323509,0.7530528,0.6158242,-9.986451
43856236,-0.01391783,0.000897478,0.3545891,0.4619326,0.1980554,-9.231247
43876211,-0.02216329,-0.005970144,0.3804011,0.6549503,0.2257735,-10.46901
43896796,-0.02849531,-0.00591801,0.398869,0.5031731,0.4848123,-8.999831
43916235,-0.02037898,-0.03720867,0.4117059,0.03281067,0.431128,-11.55113
43936171,-0.03830218,-0.02105202,0.4327688,-0.06914731,0.4177382,-8.273206
43956243,0.04720981,-0.02223237,0.4364869,1.066652,-0.08922166,-10.65447
43976228,0.0138024,0.0006199895,0.4170675,0.9182941,-0.5611569,-10.1972
43996588,-0.01603139,0.02941521,0.3756711,1.910624,-0.001097946,-9.570021
44016246,-0.03237482,0.04175006,0.302864,1.937061,-0.2185555,-9.307281
44036194,-0.04512743,0.04148114,0.2094666,1.622898,-0.009965347,-9.941036
44056468,-0.01991993,0.05456154,0.1206442,0.6557673,0.04984868,-8.843687
44076214,0.007914913,0.06253584,0.05709488,0.1886405,-0.1185972,-10.10092
44096595,0.02809557,0.05534252,0.02525707,0.04947313,-0.2238197,-10.2676
44116222,0.03587436,0.05538245,0.01653664,0.3801169,0.08856224,-9.798269
44136217,0.02765355,0.04958661,0.01504564,0.4115022,0.1960074,-9.72486
44156255,0.03869113,0.04411798,0.017031,0.5285929,0.1801186,-9.645796
44176242,0.03620814,0.02501665,0.01415762,0.4256716,0.1741999,-10.54001
44196582,0.01199117,0.01807341,0.01178306,-0.1488464,0.1739743,-9.627416
44216446,0.02141473,0.02515339,0.01113993,-0.05887061,-0.1756476,-10.27637
44236245,-0.01118073,0.0377541,0.01607289,0.2091871,-0.05193238,-9.267019
44256260,-0.01058108,0.02116036,0.01803082,0.05112081,-0.4118296,-9.207273
44276206,-0.06437051,-0.03227905,0.02074713,-0.6168535,-0.4147508,-11.16719
44296566,-0.09979951,-0.0382139,0.005784292,-0.5607188,0.4285255,-7.609164
44316231,-0.02399877,-0.08701266,-0.03506378,-1.4234,0.4649274,-10.75079
44336230,-0.02776816,-0.06278683,-0.07357762,-0.75309,0.02080662,-9.794544
44356215,-0.03700446,-0.02189867,-0.1301382,0.1392969,0.0455762,-10.01261
44376432,-0.04447971,0.004553156,-0.1953625,0.148286,-0.3329132,-9.957382
44396555,-0.02590064,0.005427648,-0.2581153,0.4448345,-0.1567877,-9.251695
44416247,-0.003654072,-0.01187252,-0.3179613,-0.37839,-0.3870566,-9.612618
44436178,0.0293763,-0.01474205,-0.3611028,-0.2818397,-1.323878,-10.00802
44456218,-0.003473625,-0.01771631,-0.367547,-0.3370484,-1.731731,-10.51503
44476213,-0.0266284,-0.03363902,-0.3341256,-0.869614,-1.596844,-10.46964
44496561,-0.03532154,-0.03404384,-0.275878,-0.1992354,-0.5398403,-9.120213
44516220,-0.03216984,-0.02146899,-0.2251488,0.4475007,0.3857535,-9.40249
44536418,-0.01199514,-0.002783085,-0.2081341,0.5242956,0.2325892,-9.697776
44556234,-0.002995364,0.02694311,-0.2225754,0.5956101,0.1829864,-9.828206
44576221,0.01105244,0.02225996,-0.2566666,-0.1122505,-0.3949877,-10.20439
44596541,0.004402256,0.0225552,-0.2821078,-0.2527717,-0.2659487,-9.975495
44616264,0.01024786,0.004556726,-0.3001551,-0.1033543,-0.7743695,-10.16865
44636222,-0.004607411,0.004300184,-0.3096329,-0.01730069,-0.1180182,-9.709182
44656248,0.00622349,-0.002544151,-0.3216245,0.06720556,-0.137364,-9.253304
44676222,-0.005622122,-0.002178503,-0.3298334,-0.1710289,-0.6110542,-10.12514
44696811,-0.01319729,0.003429373,-0.3311339,-0.3557404,-0.5676545,-9.543747
44716226,-0.008420087,0.01195598,-0.321806,-0.1830318,0.02098009,-9.535263
44736212,-0.004434965,0.02590907,-0.3153308,-0.09396653,-0.1508271,-9.991863
44756210,-0.0142329,0.04809184,-0.3117102,-0.03661409,0.003856964,-9.601714
44776229,0.002841574,0.05824959,-0.3137416,-0.10344,0.0439839,-9.45526
44796557,0.02965183,0.05733464,-0.3159901,-0.3701494,-1.00537,-10.8816
44816234,0.0201109,0.06289883,-0.3067541,-0.3313682,-0.9145004,-9.819579
44836241,0.01515814,0.03151291,-0.2900019,0.2327692,-0.8328001,-8.490965
44856471,0.01768902,-0.05426738,-0.269594,-0.2613979,-0.5880675,-10.82479
44876223,-0.007689508,-0.08729955,-0.2498449,-0.3403292,-0.1519334,-9.382706
44896568,-0.0218415,-0.09424855,-0.2361713,0.07357261,-0.1074876,-10.30797
44916244,-0.0458976,-0.0868062,-0.2289775,-0.0676477,0.3711458,-9.445373
44936194,-0.04323957,-0.08823831,-0.2336173,-0.1826046,0.1798956,-9.777527
44956266,-0.03977316,-0.07547831,-0.2416147,-0.1230117,-0.07748309,-9.865499
44976204,-0.04016033,-0.06143546,-0.2471631,-0.2457507,-0.4223601,-9.533406
44996589,-0.0294416,-0.04982097,-0.2457815,-0.2661223,-0.2507927,-9.902399
45016451,0.003169062,-0.03674546,-0.2433859,-0.1024053,0.1257703,-9.197676
45036217,0.0131083,-0.0229767,-0.2507296,0.05463617,-0.145016,-10.77758
45056276,0.009220693,-0.0127941,-0.2685759,-0.2242865,0.01180906,-9.291544
45076246,0.02831892,-0.005813444,-0.287406,-0.4437078,-0.9266897,-9.407399
45096538,0.02177819,0.0276211,-0.2936662,-0.5580614,-0.7926551,-8.285247
45116220,0.01915856,0.07191478,-0.2918156,0.0180769,-0.4362473,-11.10599
45136210,0.0003833835,0.09500069,-0.2895004,-0.09668031,-0.7168446,-10.17217
45156261,-0.02425769,0.09283493,-0.2889536,-0.2570599,-0.3516315,-9.966637
45176418,-0.03161501,0.08851577,-0.2838269,-0.3024051,-0.2697441,-9.566463
45196563,-0.03781308,0.07183323,-0.2771681,-0.1027034,-0.3003536,-9.611376
45216227,-0.03366402,0.06137676,-0.2738032,-0.07582811,0.07800489,-8.796808
45236210,-0.01606668,0.02956803,-0.2789456,0.2241178,-0.3408858,-10.28208
45256303,-0.01369135,-0.01283473,-0.2879685,0.07159644,-0.1582865,-9.452382
45276210,-0.004251157,-0.05488626,-0.2993135,-0.3744465,-0.07148784,-10.24236
45296570,-0.002161553,-0.06792188,-0.3041396,-0.6330984,-0.6848028,-10.08467
45316240,-0.01394553,-0.06189463,-0.2955289,-0.53914,-0.6925337,-10.01819
45336418,-0.004516675,-0.05696996,-0.2798353,-0.3729353,-0.6096687,-9.848255
45356261,-0.01427004,-0.04338934,-0.2582226,-0.3563773,-0.4053141,-9.853945
45376220,-0.01703988,-0.03516311,-0.2380366,-0.1848711,-0.05822852,-9.785858
45396555,-0.01874639,-0.03420275,-0.2303868,0.03375181,0.165921,-9.612726
45416208,-0.02737319,-0.03491545,-0.2349482,-0.1807373,0.004089652,-10.17282
45436215,-0.03325486,-0.02848418,-0.2396724,-0.3377119,-0.05970003,-8.982542
45456250,-0.0196058,-0.02469486,-0.2344726,-0.5099069,-0.3063316,-9.615275
45476210,0.007438958,-0.007228003,-0.2180946,-0.3061326,-0.3061978,-9.230176
45496843,0.03374862,0.002835339,-0.2015153,-0.007060418,-0.3789493,-10.38787
45516207,0.02990984,0.01778047,-0.1980653,0.03381418,-0.03547714,-10.09064
45536215,0.02303051,0.0262114,-0.2087854,-0.02233903,-0.1896512,-9.819525
45556267,0.001914483,0.02965025,-0.228522,-0.3166479,-0.2773387,-8.985986
45576186,0.005650011,0.02753737,-0.2445402,-0.7451206,-0.3840126,-10.03862
45596566,-0.0008877154,0.03026082,-0.2465109,-0.8871152,-0.3098093,-9.13625
45616236,0.0253801,0.00187432,-0.2432554,-0.7297747,-0.6430333,-10.92328
45636196,0.00779199,-0.0001850676,-0.2412042,-0.9574569,-0.03385919,-9.846358
45656419,0.02966391,-0.02125526,-0.2534862,-1.176918,-0.5051603,-8.469932
45676215,-0.007169232,-0.01393073,-0.2513073,-0.9817781,-0.4360986,-10.88462
45696525,-0.001779926,-0.000910474,-0.2215116,-0.4689257,-0.05234006,-9.191306
45716230,0.02889434,-0.003978134,-0.1739912,-0.07289391,-0.1883647,-9.86212
45736215,0.02585989,0.005386373,-0.1196129,0.2204389,-0.04226356,-9.892099
45756255,0.01398999,0.01306946,-0.07829192,0.4145388,0.4532533,-9.874585
45776197,0.004215102,0.02212224,-0.06066828,0.4588261,0.5267766,-9.478855
45796566,-0.0005172457,0.02175141,-0.06772532,0.3896553,0.4133207,-10.18732
45816405,-0.01343535,0.02477528,-0.08366414,-0.01613799,-0.07668695,-9.83345
45836167,-0.01262475,0.03155077,-0.09580957,-0.07517369,-0.6171653,-9.904215
45856247,-0.01652345,0.02953726,-0.09538989,-0.2501524,-0.5240354,-9.739744
45876214,-0.0002014272,0.0301866,-0.08600674,-0.1207429,-0.6756996,-9.731139
45896573,-0.0005444893,0.02939023,-0.06994191,0.1052617,-0.2149619,-10.02939
45916201,0.003097218,0.02970194,-0.05969248,0.1564138,-0.100529,-9.825502
45936216,-0.009290203,0.02972443,-0.05356889,-0.03543429,-0.1747785,-9.637154
45956238,-0.02219927,0.02999682,-0.05020661,-0.2063026,-0.1392245,-9.689868
45976424,-0.02724145,0.02392093,-0.05079613,-0.09871706,0.07213952,-9.703173
45996572,-0.01115029,0.02705145,-0.05988935,0.1198297,0.2814827,-9.709682
46016237,-0.01270939,0.01471303,-0.07536799,0.2009809,0.09156693,-9.990698
46036227,-0.01557037,0.004944405,-0.09964648,0.1128294,0.08147841,-9.499924
46056204,-0.03216698,-0.01097816,-0.1255233,0.01739692,-0.2180856,-10.31107
46076226,-0.03546745,-0.02368236,-0.149738,-0.1439651,-0.1018537,-9.237409
46096578,-0.02562475,-0.02492499,-0.1666752,-0.2075983,-0.4575472,-9.124341
46116264,0.001935734,-0.04009272,-0.1771854,-0.04035311,-0.6167825,-10.1809
46136447,-0.005197992,-0.04802623,-0.1765077,-0.2795156,-0.09450204,-9.443883
46156232,0.0109587,-0.06317433,-0.1709856,0.110952,-0.05679386,-9.697713
46176215,0.01486702,-0.07561602,-0.1581177,-0.4949011,-0.3306444,-10.54618
46196558,0.01847283,-0.0877969,-0.1328989,-0.6470588,-0.1999365,-9.189925
46216185,0.01367642,-0.08204546,-0.0967579,-0.4752774,-0.386933,-9.980448
46236186,-0.002953911,-0.05314162,-0.0587987,-0.1673993,-0.003714152,-9.574092
46256244,-0.008151443,-0.02731127,-0.03164142,-0.06411341,0.1016669,-9.706882
46276213,-0.003575256,-0.008912794,-0.01801395,-0.0296885,0.2419265,-10.08007
46296844,0.01008874,0.000766154,-0.02017257,-0.04778395,0.2117872,-9.907188
46316245,0.01602133,0.01657294,-0.03606236,-0.07507287,0.1961202,-9.546315
46336209,0.02403912,0.02363951,-0.06396693,-0.1170064,-0.3998483,-10.54218
46356273,0.005487647,0.05933913,-0.08753578,-0.2083852,0.02736007,-8.803036
46376166,0.02626038,0.04806477,-0.1105179,-0.08105481,-0.6928836,-10.21188
46396572,0.01111841,0.03924584,-0.1278904,-0.14037,0.2319601,-10.24882
46416255,0.0173627,0.02627912,-0.1440129,-0.1362764,-0.3888136,-9.397594
46436235,-0.02165399,0.02244715,-0.1540777,-0.1112794,-0.258675,-10.2977
46456451,-0.01478491,0.01097366,-0.1643417,-0.2567413,0.01459557,-9.353367
46476177,-0.003084013,0.008996658,-0.16657,-0.1874332,-0.7156607,-10.0226
46496571,-0.0169041,0.003468125,-0.1623632,-0.1414627,-0.2503745,-9.757792
46516223,-0.007760528,0.004238689,-0.1603595,-0.1041962,-0.2071902,-9.926156
46536226,-0.02188433,0.01120571,-0.1594715,-0.06259203,-0.240645,-9.81076
46556269,-0.03466444,0.005389867,-0.1586462,-0.2005142,-0.3127181,-9.953129
46576180,-0.02727259,-0.004684168,-0.1579961,-0.2369167,-0.1646597,-9.82148
46596559,-0.0364137,0.001806887,-0.1534869,-0.3627935,-0.1948875,-9.281919
46616438,-0.01824685,-0.0002090764,-0.1428767,-0.3405155,-0.409522,-10.18586
46636244,-0.01406531,0.007449582,-0.1267565,-0.2834092,-0.2034418,-9.704354
46656227,-0.003486799,0.004689391,-0.1081818,-0.2346559,-0.1784676,-9.730596
46676190,0.002475098,-0.00111953,-0.09097579,-0.2412648,-0.02165082,-9.533687
46696581,0.01618665,-0.01503331,-0.08391164,-0.1040229,-0.009582867,-10.24523
46716248,0.009116504,-0.009824434,-0.09144279,-0.1046541,0.2290801,-9.563287
46736199,0.01498111,0.008855989,-0.1120776,-0.1532854,-0.0064986,-10.54224
46756239,0.005827458,0.02564374,-0.1369788,-0.2160268,0.07885124,-9.664157
46776420,0.003450021,0.04336905,-0.1645753,-0.2056753,-0.423868,-9.720095
46796575,-0.013397,0.05180443,-0.1784841,-0.4265677,-0.0724742,-9.541432
46816253,0.00850439,0.04481278,-0.1808152,-0.4657603,-0.546526,-9.465155
46836194,0.01764282,0.03807162,-0.168612,-0.4280959,-0.6637896,-10.08078
46856297,0.02527432,0.0327199,-0.1517412,-0.1589109,-0.1899494,-9.369562
46876201,0.02937422,0.02322308,-0.1391466,0.03306414,0.03851219,-9.689354
46896609,0.01629221,0.008414509,-0.1330648,-0.1140971,-0.04909818,-9.838655
46916213,-0.0001553752,-0.005082633,-0.1290996,-0.411203,-0.3217706,-9.603975
46936413,-0.002467683,-0.01802521,-0.1226364,-0.7736407,-0.7876701,-10.14357
46956241,-0.01719184,-0.01530864,-0.1069564,-0.7009723,-0.2812105,-9.644171
46976224,-0.01902664,-0.02086693,-0.09055512,-0.34652,0.2325623,-10.4494
46996560,-0.01215226,-0.01605646,-0.0744077,-0.3001013,0.5451425,-9.912279
47016209,0.02627706,0.005371516,-0.06174814,-0.02833092,0.1611116,-9.336849
47036221,0.05382895,0.004899421,-0.05027984,0.05971213,0.3728613,-9.592488
47056253,0.04689548,0.007660338,-0.03665349,0.1403608,-0.3372309,-10.21366
47076223,0.01611986,0.02318753,-0.01916628,0.106795,-0.1198809,-9.638275
47096826,-0.009447485,0.02390282,0.01131861,0.1377273,-0.2368706,-10.30888
47116241,-0.01757655,0.02561679,0.05450979,0.2455321,-0.008964048,-9.200968
47136239,-0.02261094,0.01730675,0.1005367,0.5098568,0.2431401,-10.30249
47156283,-0.03369428,0.01360495,0.1395074,0.4966604,0.6359109,-9.44416
