TimeUS,GyrX,GyrY,GyrZ,AccX,AccY,AccZ
23906234,0.003900765,-0.001054333,-3.616797e-06,-0.3213449,-0.7015502,-9.810127
23926311,0.003738777,-0.001403518,0.000142497,-0.3210211,-0.7014762,-9.817644
23945889,0.003853605,-0.001434011,0.0002074616,-0.3156914,-0.6999531,-9.814856
23965924,0.003949516,-0.001025599,0.0003747512,-0.3182031,-0.696323,-9.821029
23985877,0.004297227,-0.0008462526,0.0003633141,-0.314434,-0.6878521,-9.821909
24005988,0.004403173,-0.001190082,0.0002954944,-0.3168693,-0.6841675,-9.836193
24026496,0.004352097,-0.001510361,0.0002349336,-0.325769,-0.694661,-9.837101
24045897,0.004393752,-0.001942942,0.0001455975,-0.3368222,-0.6994848,-9.840144
24065980,0.004234553,-0.00215247,-4.712964e-05,-0.3270995,-0.7037584,-9.828578
24085925,0.003856722,-0.002145837,-0.0001304533,-0.3144256,-0.702524,-9.830652
24105928,0.003953163,-0.002048192,-0.0001945839,-0.3193769,-0.7002408,-9.825677
24126343,0.00407482,-0.001991888,3.22899e-06,-0.328094,-0.6932493,-9.822408
24145935,0.004071304,-0.002118758,0.0002505823,-0.3225099,-0.6960754,-9.811887
24165987,0.004048983,-0.00231525,0.0003015836,-0.323579,-0.6915445,-9.8181
24186093,0.004319775,-0.002540936,0.0004127259,-0.3195172,-0.6922069,-9.818677
24205930,0.004578156,-0.002483728,0.0003222786,-0.3227825,-0.6942911,-9.825605
24226348,0.004491468,-0.002535196,0.0002615195,-0.3302214,-0.697129,-9.837193
24245882,0.004125914,-0.002090956,0.0002921207,-0.328311,-0.7012135,-9.828391
24265987,0.004112735,-0.002173593,0.0002155536,-0.3285744,-0.7043126,-9.825609
24285887,0.003814352,-0.002182551,3.735943e-05,-0.3239939,-0.7093832,-9.817686
24305914,0.003685689,-0.002026107,-0.0002688988,-0.3192807,-0.7068745,-9.808351
24326331,0.003635503,-0.002082758,-0.0003920079,-0.3180493,-0.7075868,-9.819762
24346182,0.003612696,-0.002123706,-0.0004513735,-0.3197058,-0.7065455,-9.84076
24365925,0.003760752,-0.001862077,-0.0004913001,-0.3171253,-0.707912,-9.834196
24385903,0.003949371,-0.001735015,-0.0004329452,-0.3197802,-0.7005617,-9.814984
24405972,0.004041592,-0.001627978,-0.0004353261,-0.318002,-0.6980765,-9.81481
24426328,0.004337709,-0.00174497,-0.0004477941,-0.3101656,-0.7018014,-9.819106
24445904,0.00454903,-0.00152326,-0.0005299299,-0.3212293,-0.6956499,-9.828734
24465935,0.0046448,-0.001322224,-0.0003694211,-0.3151339,-0.6982338,-9.840416
24485908,0.004733271,-0.001203445,-0.0001150544,-0.31878,-0.6997869,-9.837329
24506130,0.004947726,-0.001591311,-2.214837e-05,-0.3236355,-0.6955243,-9.837879
24526304,0.004942492,-0.002139237,-7.335353e-05,-0.3179925,-0.6949083,-9.834997
24545931,0.004501263,-0.002639714,-8.657105e-05,-0.3150214,-0.6917155,-9.831232
24565920,0.004092275,-0.002899359,0.0001361331,-0.3181073,-0.70147,-9.824467
24585910,0.00396233,-0.002941713,0.000271943,-0.3227131,-0.7064081,-9.816977
24605958,0.003709652,-0.002921142,0.000279085,-0.3160733,-0.6986842,-9.816652
24626373,0.003763785,-0.003227295,0.0001854813,-0.316851,-0.6974134,-9.827838
24645881,0.004147872,-0.003566841,6.628711e-05,-0.3199397,-0.6931014,-9.832949
24666164,0.004313661,-0.003120948,-3.818551e-06,-0.3196991,-0.7020998,-9.82146
24685885,0.004130205,-0.002770208,8.130562e-06,-0.319759,-0.7026519,-9.827527
24705897,0.003871885,-0.002683107,0.0001294625,-0.3197243,-0.6955284,-9.817411
24726306,0.003614992,-0.002467875,0.0001014504,-0.3278614,-0.6976007,-9.828651
24745913,0.003302473,-0.002179508,0.0002265251,-0.325169,-0.7029864,-9.836851
24765922,0.003530577,-0.001931815,0.0003069809,-0.3246332,-0.7038145,-9.83858
24785923,0.003786887,-0.001493521,0.0002667283,-0.3130459,-0.701278,-9.83692
24805962,0.00407248,-0.001008107,0.0002889813,-0.308125,-0.7107729,-9.83318
24826494,0.004508279,-0.001057956,0.000446313,-0.3174319,-0.7121753,-9.822787
24845888,0.004885335,-0.001698295,0.0004716196,-0.3162052,-0.7027171,-9.821304
24865998,0.004783053,-0.001978274,0.0004130353,-0.3161543,-0.6980301,-9.831107
24885907,0.004380303,-0.00190604,0.0002491559,-0.3074713,-0.6988138,-9.829851
24905942,0.003799289,-0.001658752,6.453635e-05,-0.3045116,-0.7011913,-9.830661
24926306,0.003486913,-0.001597146,-0.0001686262,-0.3132109,-0.697315,-9.824258
24945962,0.003191559,-0.001398158,-0.0003095129,-0.3180536,-0.7002188,-9.822895
24965964,0.003009338,-0.001609863,-0.0002806306,-0.3167172,-0.7018309,-9.819956
24986211,0.002783423,-0.001427525,-0.0001268237,-0.3152242,-0.7021914,-9.814022
25005943,0.002851233,-0.001211269,-3.1819e-05,-0.3202654,-0.7075797,-9.817325
25026364,0.002912017,-0.0007838008,-8.069178e-05,-0.3159975,-0.7074972,-9.828393
25045886,0.003070493,-0.0006366287,-0.0002163987,-0.3168471,-0.7107045,-9.824122
25065920,0.003621239,-0.001101289,-0.0002444376,-0.3161959,-0.705022,-9.81449
25085887,0.004129499,-0.001359784,-0.0001253366,-0.3221599,-0.702137,-9.823312
25105910,0.004275097,-0.001028297,-3.894252e-05,-0.3194919,-0.7019076,-9.825877
25126367,0.004427835,-0.0006516257,0.0001242402,-0.3223811,-0.7045155,-9.822497
25146082,0.004652124,-0.0007126492,0.0001999826,-0.3243866,-0.7056138,-9.816545
25165911,0.004818482,-0.001365894,0.0002456043,-0.3218577,-0.7067109,-9.832688
25185929,0.004569554,-0.00154267,0.0004064215,-0.3207354,-0.7112008,-9.841753
25205927,0.00446473,-0.001550321,0.0004855348,-0.3185576,-0.7096993,-9.840484
25226359,0.004564377,-0.001469821,0.0004174146,-0.3204315,-0.7060766,-9.837086
25245895,0.004461274,-0.001584109,0.0004295646,-0.3176022,-0.712394,-9.836067
25265985,0.004203713,-0.002044732,0.0003652587,-0.3102839,-0.7161626,-9.847596
25285899,0.003675437,-0.002353376,0.000169851,-0.3128268,-0.7130283,-9.850177
25306233,0.003264921,-0.002540072,0.0001766237,-0.3146392,-0.7140532,-9.847396
25326383,0.003171187,-0.002514797,0.000164141,-0.3210125,-0.7103124,-9.84328
25345882,0.003146122,-0.002397951,0.000226914,-0.32058,-0.70432,-9.838225
25365917,0.002957806,-0.002450707,0.0003934014,-0.3152883,-0.7089621,-9.833006
25385955,0.002625309,-0.002119921,0.0005586366,-0.3114578,-0.7118229,-9.825861
25405895,0.00243126,-0.001513264,0.0005971531,-0.3156412,-0.7152963,-9.819673
25426373,0.002811949,-0.001250419,0.0004732696,-0.3197128,-0.7154489,-9.818098
25445898,0.003131708,-0.001160225,0.0003993579,-0.3248326,-0.7070473,-9.827119
25466205,0.003204257,-0.001083488,0.0004124851,-0.3252481,-0.7088316,-9.815906
25485908,0.003317043,-0.001284684,0.0005193881,-0.3179388,-0.7057082,-9.821462
25505922,0.003455511,-0.001729268,0.0004233076,-0.3125688,-0.7087768,-9.832644
25526309,0.003565024,-0.001879754,0.0004360437,-0.306766,-0.7102744,-9.834483
25545934,0.003735178,-0.001985599,0.0003276926,-0.2998649,-0.7084733,-9.851114
25565975,0.00348549,-0.002127325,0.0003222782,-0.3122487,-0.7039458,-9.848629
25585882,0.003430474,-0.002194033,0.0002174438,-0.3185252,-0.7092988,-9.839907
25605943,0.003334323,-0.002099059,0.0001670134,-0.3134761,-0.7114847,-9.842625
25626498,0.003283695,-0.001828234,0.0001289081,-0.3135998,-0.7059675,-9.842692
25645938,0.003587648,-0.001407482,0.0001104174,-0.3143841,-0.7133808,-9.835329
25665975,0.003664236,-0.001026237,5.819695e-05,-0.3154751,-0.7081929,-9.837983
25685930,0.003755351,-0.001343862,4.628297e-05,-0.3159027,-0.7107025,-9.831776
25705935,0.00411611,-0.002206889,-7.365007e-05,-0.3201362,-0.7104013,-9.830665
25726302,0.004440105,-0.002736931,-0.0002796537,-0.3304578,-0.7075382,-9.837368
25745935,0.004457388,-0.002776834,-0.0002807346,-0.3269562,-0.7083989,-9.834864
25765974,0.00407866,-0.002239169,-0.0001713593,-0.3157642,-0.7123148,-9.832354
25786188,0.004076965,-0.00202282,-0.0003206251,-0.3034942,-0.7106938,-9.846841
25805916,0.003848289,-0.002411347,-0.0003758921,-0.2971093,-0.7078395,-9.839419
25826341,0.003680926,-0.002256723,-0.0003936636,-0.3100302,-0.7068248,-9.836247
25845901,0.003361678,-0.002213955,-0.0001753388,-0.3149381,-0.7040726,-9.832998
25865964,0.003370162,-0.001797677,6.70924e-05,-0.319746,-0.7070195,-9.835582
25885969,0.003471415,-0.001452185,0.0002160181,-0.3185739,-0.712503,-9.835857
25905952,0.003708246,-0.001164102,0.0002033299,-0.3076311,-0.7168561,-9.843471
25926299,0.003629044,-0.001033448,0.0001268148,-0.3129585,-0.7111338,-9.855168
25946174,0.003450321,-0.0007926793,0.0001681553,-0.3220702,-0.7074926,-9.850289
25965984,0.00337664,-0.001188542,9.517773e-05,-0.304913,-0.7130723,-9.853615
25985893,0.003263721,-0.001496478,0.0001108454,-0.3041552,-0.7103609,-9.855664
26005905,0.00329225,-0.001819536,0.0001909198,-0.3112127,-0.7124451,-9.831691
26026342,0.003549931,-0.002112386,0.000181486,-0.3161764,-0.7150159,-9.828429
26045921,0.003569279,-0.002093375,0.0004199979,-0.3133653,-0.7154988,-9.827722
26066041,0.003294458,-0.001813708,0.000512302,-0.3082436,-0.7153332,-9.826409
26085941,0.003248113,-0.001822037,0.0004647679,-0.305171,-0.7171328,-9.826612
26106122,0.003301939,-0.001806386,0.0002461394,-0.3124648,-0.7181776,-9.83535
26126301,0.003319579,-0.00115086,0.0002488577,-0.3240334,-0.7163893,-9.843666
26145903,0.003301657,-0.001135655,0.000177988,-0.3223043,-0.7101306,-9.84372
26165944,0.003302203,-0.001314285,0.0003456248,-0.3024263,-0.7093053,-9.838591
26185921,0.003555937,-0.001912763,0.0002127634,-0.3055848,-0.7100857,-9.833038
26205957,0.003877128,-0.002311359,0.0001985049,-0.3096483,-0.7107608,-9.828178
26226339,0.004394904,-0.002140981,0.0001553898,-0.3121733,-0.7149734,-9.821589
26245898,0.004616729,-0.002442289,2.272003e-05,-0.3208695,-0.7153674,-9.835206
26266199,0.004669793,-0.002799435,-3.751729e-05,-0.3176169,-0.7145611,-9.845265
26285933,0.004525001,-0.002986012,-4.351069e-05,-0.3155985,-0.7139702,-9.841263
26305979,0.004614557,-0.003138294,-7.611029e-05,-0.3121452,-0.7164574,-9.832984
26326352,0.004363124,-0.003170996,-0.0001473263,-0.3147251,-0.7222373,-9.829703
26345949,0.004351341,-0.003201999,-3.615842e-05,-0.3142727,-0.7266442,-9.83633
26365924,0.004187915,-0.003371608,0.0003471053,-0.3133222,-0.7219519,-9.85067
26385941,0.003813948,-0.00355471,0.0004189051,-0.3268075,-0.7139893,-9.853859
26405984,0.003738819,-0.003434886,0.0002955519,-0.3085427,-0.7173564,-9.849275
26426528,0.003358376,-0.002797007,0.0002448733,-0.3074444,-0.7159555,-9.856269
26445927,0.003114523,-0.002528379,0.0002001411,-0.3137709,-0.7108361,-9.858963
26465933,0.00281117,-0.002213012,4.756409e-05,-0.3184015,-0.7092922,-9.847409
26485893,0.002559197,-0.001760536,8.790711e-05,-0.3217961,-0.7123724,-9.83624
26505916,0.002776724,-0.001172694,0.000344039,-0.3141249,-0.7192054,-9.844152
26526296,0.002832995,-0.00056861,0.0005641833,-0.3137878,-0.7182859,-9.84444
26545906,0.003011555,-0.0003816802,0.0007240165,-0.3112306,-0.7195603,-9.84731
26566017,0.003131126,-0.000498365,0.0008118992,-0.3148374,-0.7211861,-9.844951
26586146,0.003437933,-0.0004699087,0.0007189914,-0.3160322,-0.7173327,-9.842967
26605914,0.003841483,-0.0007335036,0.000604995,-0.3161032,-0.7165751,-9.845493
26626328,0.004124825,-0.0009852051,0.0003897144,-0.3056312,-0.7190741,-9.843666
26645919,0.004249091,-0.001162945,0.0004320176,-0.308122,-0.7224891,-9.846068
26665926,0.004193813,-0.001328215,0.0005603547,-0.3166561,-0.7176474,-9.838585
26685977,0.004030528,-0.001419995,0.0006950136,-0.3260727,-0.716081,-9.831634
26705930,0.003875122,-0.001694818,0.0007428013,-0.3178473,-0.7114715,-9.829491
26726353,0.003680983,-0.001854828,0.0007916574,-0.3080699,-0.7101044,-9.839474
26746155,0.003477493,-0.002551539,0.0006003277,-0.30306,-0.7136496,-9.839088
26765949,0.003252832,-0.002571993,0.0002110678,-0.3034215,-0.7185692,-9.849113
26785886,0.002863543,-0.001946774,0.0001792862,-0.306219,-0.7140598,-9.858243
26805951,0.002970403,-0.001549449,0.0002487949,-0.3122371,-0.7102259,-9.848549
26826336,0.003404326,-0.001643819,0.0002546267,-0.3147098,-0.7164237,-9.849239
26845923,0.003932049,-0.001946589,0.0003175969,-0.3140942,-0.7208515,-9.851615
26865980,0.004406128,-0.001759731,0.0002629957,-0.3132081,-0.7177662,-9.847795
26885893,0.004726812,-0.001719354,9.007222e-05,-0.3109743,-0.7223428,-9.838427
26906196,0.004638887,-0.002187798,8.034437e-05,-0.3180006,-0.7204694,-9.834729
26926319,0.004584533,-0.002623633,9.420067e-05,-0.3153091,-0.7221089,-9.842544
26945938,0.004646704,-0.00310805,9.380893e-05,-0.3077395,-0.7190097,-9.834081
26965912,0.004674781,-0.003902792,0.0001213673,-0.3146016,-0.7185923,-9.832016
26985896,0.004523891,-0.003684389,0.0004007937,-0.3196599,-0.7169942,-9.83179
27005937,0.00407178,-0.002909769,0.0004630958,-0.3187609,-0.7145693,-9.837986
27026318,0.003713512,-0.002673847,0.0005502015,-0.3224541,-0.7163418,-9.847065
27045864,0.003875714,-0.002702066,0.0004375023,-0.3177668,-0.7212194,-9.845987
27066198,0.00416196,-0.002819439,0.000246688,-0.3128061,-0.721047,-9.843456
27085976,0.004432453,-0.002888595,0.0001196852,-0.3086805,-0.7261216,-9.845532
27105899,0.004557446,-0.003057321,0.0003518401,-0.3130765,-0.7186382,-9.857603
27126346,0.004713499,-0.003229391,0.0005366965,-0.3178453,-0.7175949,-9.857305
27145947,0.004628323,-0.002951132,0.0005421884,-0.3174579,-0.716173,-9.843508
27165974,0.004239606,-0.002323551,0.0004717232,-0.3002995,-0.719993,-9.832282
27185954,0.004143095,-0.001817456,0.0005375036,-0.2979525,-0.7213141,-9.844679
27205913,0.004048028,-0.001692242,0.0006614639,-0.2987069,-0.7204267,-9.854092
27226463,0.004045151,-0.002042841,0.0006530109,-0.3013461,-0.7210846,-9.851017
27245940,0.004296707,-0.002124237,0.0004578003,-0.3066128,-0.7254045,-9.84417
27265981,0.004386086,-0.001715498,0.000460715,-0.3025781,-0.7258794,-9.844991
27285878,0.004638964,-0.001386397,0.0002786119,-0.3119949,-0.7309387,-9.847808
27305902,0.00481089,-0.0009376349,0.000110122,-0.323373,-0.7200071,-9.859743
27326352,0.004839307,-0.0008502019,3.466865e-05,-0.3258829,-0.7175481,-9.860762
27345878,0.004833436,-0.001141836,3.125328e-05,-0.3129679,-0.7170984,-9.854821
27365977,0.004610077,-0.00136849,-5.142472e-05,-0.3089224,-0.7165223,-9.846242
27386230,0.004310124,-0.001693237,4.432171e-05,-0.3152494,-0.7199998,-9.839196
27405945,0.004110098,-0.002012526,-4.658495e-06,-0.3264472,-0.7180539,-9.851293
27426299,0.003814032,-0.001579872,1.861356e-05,-0.325888,-0.7190971,-9.849798
27445946,0.003570624,-0.001077715,0.0001233544,-0.3099246,-0.7171565,-9.851659
27465973,0.003735491,-0.0006262379,0.0001135845,-0.3095369,-0.7180529,-9.857285
27485902,0.003895433,-0.0006833441,5.018146e-05,-0.311823,-0.7253092,-9.856626
27505886,0.00416826,-0.0006668147,4.002855e-05,-0.3117108,-0.7222338,-9.84982
27526329,0.004179503,-0.0006396142,-4.635114e-06,-0.308823,-0.7174001,-9.850296
27546185,0.004110598,-0.0005410056,6.938635e-05,-0.3087533,-0.7161275,-9.850476
27565942,0.00407883,-0.0006788499,0.0002003455,-0.3112789,-0.7174855,-9.847173
27585896,0.004155895,-0.001365204,2.87723e-06,-0.3137883,-0.7205516,-9.849768
27605976,0.004380686,-0.002210658,5.487193e-05,-0.3173023,-0.725243,-9.860867
27626314,0.004361774,-0.002797628,0.0001458762,-0.3101664,-0.7202671,-9.864897
27645945,0.004165954,-0.002653956,0.0003654082,-0.3153157,-0.7199132,-9.85525
27665944,0.004039656,-0.002557168,0.0005939039,-0.3110341,-0.7251714,-9.848537
27685930,0.003994754,-0.002648112,0.0008223331,-0.307196,-0.725988,-9.841511
27706172,0.004081978,-0.003007949,0.001024153,-0.3117755,-0.7262599,-9.834066
27726320,0.004313401,-0.003296613,0.001028785,-0.3075459,-0.7258521,-9.836983
27745886,0.004595273,-0.003155863,0.0008807358,-0.3073671,-0.7253236,-9.841433
27765926,0.004819409,-0.002977751,0.000828759,-0.3180851,-0.7256544,-9.841206
27785933,0.004762618,-0.00202521,0.000600638,-0.320036,-0.7289168,-9.844653
27805965,0.004615199,-0.001786787,0.0004912782,-0.3181351,-0.7283924,-9.844761
27826324,0.004445634,-0.001675965,0.0003443186,-0.3204998,-0.7282657,-9.843072
27845913,0.004235735,-0.001589465,0.0002315145,-0.3179464,-0.7265293,-9.83965
27866139,0.004027174,-0.001903529,0.00026525,-0.3121505,-0.7186751,-9.851466
27885866,0.004348076,-0.002404064,0.0002369512,-0.3100618,-0.7244679,-9.848028
27905972,0.004372619,-0.001962242,0.0001211686,-0.3145959,-0.7259043,-9.85067
27926335,0.0045531,-0.001845527,-6.344135e-05,-0.3207119,-0.7254422,-9.849299
27945882,0.004392399,-0.001353841,-2.817748e-05,-0.3251495,-0.7204919,-9.854538
27965939,0.004082336,-0.001206075,0.0001141679,-0.324102,-0.7202643,-9.848625
27985885,0.004191375,-0.001494791,0.0002575163,-0.322394,-0.7286448,-9.843869
28005919,0.00455121,-0.002328262,0.0002030923,-0.3199222,-0.7280743,-9.843751
28026514,0.004435741,-0.002701837,0.0002478696,-0.3071709,-0.7249547,-9.850396
28045909,0.004402163,-0.002686158,0.0002334924,-0.3049085,-0.7225998,-9.832757
28065917,0.004533018,-0.002984372,9.278358e-05,-0.3085004,-0.7229172,-9.835731
28085956,0.00457215,-0.002808489,3.874633e-06,-0.3079148,-0.7241371,-9.846074
28105979,0.004341118,-0.00239499,-2.435654e-05,-0.3148631,-0.7236945,-9.847901
28126364,0.00421687,-0.001593198,-4.767323e-05,-0.3114538,-0.7263578,-9.851258
28145870,0.003751675,-0.0009449084,-8.959487e-05,-0.3051408,-0.7226699,-9.855297
28165989,0.003459492,-0.0005756273,-0.0001904274,-0.3017549,-0.7222368,-9.852886
28186089,0.003491717,-7.544246e-05,-3.828894e-05,-0.3145848,-0.717555,-9.851706
28205951,0.003497035,0.0001544269,-9.02992e-05,-0.3152244,-0.7205617,-9.85077
28226356,0.003335342,-0.0002459978,-1.289035e-05,-0.3086746,-0.7206236,-9.839733
28245897,0.00325856,-0.0008296369,0.0001256258,-0.312941,-0.725074,-9.840485
28266029,0.003171983,-0.0009046177,0.0001832051,-0.3133659,-0.7260557,-9.841091
28285956,0.003275848,-0.0007258787,7.410094e-05,-0.3123986,-0.7283285,-9.848083
28305914,0.003706803,-0.0007067947,-3.661939e-05,-0.3164976,-0.7266576,-9.851505
28326356,0.004006311,-0.001078501,6.652448e-05,-0.329495,-0.7229472,-9.856665
28346032,0.003726155,-0.001436604,0.0002393834,-0.3238893,-0.7175741,-9.86053
28365919,0.003662987,-0.001744428,0.0002782471,-0.3071348,-0.721285,-9.860335
28385939,0.004065063,-0.001583334,0.0003529786,-0.3133727,-0.7206311,-9.859506
28405951,0.004514514,-0.001709874,0.0002939249,-0.3190659,-0.7234844,-9.848706
28426317,0.004659342,-0.001848909,8.950548e-05,-0.3168674,-0.7238944,-9.841523
28445908,0.004418849,-0.002244116,-0.0001167224,-0.3135501,-0.7165834,-9.846788
28465966,0.004264033,-0.002495056,-0.000125761,-0.3101713,-0.7197085,-9.840625
28485931,0.004241323,-0.002134301,-0.0002177533,-0.3139676,-0.7147664,-9.840289
28506120,0.004432437,-0.001600358,-0.0001869922,-0.3179225,-0.7118965,-9.843385
28526306,0.004658397,-0.001078047,-0.0001379317,-0.322086,-0.7156556,-9.844075
28545905,0.004657096,-0.0005848426,-4.878492e-05,-0.3163007,-0.7226111,-9.842603
28565989,0.004155985,-0.0006970612,4.794637e-05,-0.3186056,-0.7234904,-9.841451
28585957,0.004000862,-0.0008682443,4.986264e-05,-0.3283064,-0.7242594,-9.848802
28605940,0.004009011,-0.0006125055,-6.60076e-05,-0.3303451,-0.7228376,-9.847259
28626315,0.003888873,-0.0007127459,2.084419e-05,-0.326579,-0.7203302,-9.85042
28645859,0.003653037,-0.001039851,-8.867174e-06,-0.3240722,-0.7244567,-9.846693
28666221,0.003694088,-0.001520791,-4.88306e-05,-0.3208625,-0.7176605,-9.845997
28685913,0.003489786,-0.001435952,-0.0002050657,-0.3189169,-0.7121375,-9.847171
28705957,0.003536903,-0.001415901,-0.0001745417,-0.308251,-0.7191028,-9.841425
28726330,0.00391605,-0.001748681,-0.0002665744,-0.3135201,-0.7244067,-9.837965
28745927,0.004214192,-0.001740216,-0.0004222381,-0.3156945,-0.7283078,-9.847795
28765976,0.004102367,-0.001398192,-0.0005718113,-0.313343,-0.7293831,-9.848807
28785946,0.003706246,-0.001033325,-0.0005467702,-0.3203042,-0.7238281,-9.848255
28805891,0.003238957,-0.001069497,-0.000426391,-0.3197746,-0.7204764,-9.840088
28826517,0.002771787,-0.001197635,-0.0001384228,-0.3152741,-0.7197844,-9.840682
28845878,0.002646105,-0.001024664,-5.783204e-06,-0.3161105,-0.7258948,-9.842207
28865982,0.002739546,-0.00100574,0.0001136199,-0.3193128,-0.7253318,-9.839919
28885933,0.003015184,-0.0009863388,0.000203256,-0.32354,-0.7229427,-9.840796
28905961,0.002894407,-0.0004563308,0.0003507774,-0.3172278,-0.7188799,-9.842124
28926329,0.002666665,-0.000272672,0.000482473,-0.3246544,-0.7144306,-9.847065
28945888,0.002972518,-0.0006180144,0.0004823234,-0.3380623,-0.7166135,-9.843534
28965967,0.003714974,-0.001198741,0.0003819951,-0.3245673,-0.7184871,-9.832016
28986118,0.004238517,-0.001360764,0.0004318738,-0.3169844,-0.7152562,-9.839957
29005952,0.00432655,-0.001317246,0.0005982169,-0.3231058,-0.7154445,-9.85345
29026315,0.004358385,-0.00129418,0.0005268196,-0.3155488,-0.7239591,-9.851742
29045906,0.004258458,-0.0008530192,0.000431264,-0.3140658,-0.7236818,-9.848546
29065913,0.004200919,-0.00110855,0.0003086924,-0.3178594,-0.7168519,-9.852771
29085939,0.004310953,-0.001350585,7.368356e-05,-0.3351946,-0.722478,-9.858867
29105898,0.004627058,-0.001526263,9.613911e-05,-0.3316779,-0.7236118,-9.855157
29126326,0.004837047,-0.001313763,0.0001520188,-0.3299406,-0.7201991,-9.86286
29146131,0.00496429,-0.0008763638,-6.732189e-05,-0.3263398,-0.7211437,-9.860194
29165996,0.004720022,-0.0004616238,-0.0001870981,-0.3201101,-0.725278,-9.855916
29185934,0.00438403,-0.0001688193,-4.42264e-05,-0.3120751,-0.7260257,-9.849748
29205901,0.004495785,-0.0007104325,1.913112e-05,-0.3091797,-0.722975,-9.843008
29226297,0.004042996,-0.0010484,-2.613684e-05,-0.3096747,-0.7255644,-9.839217
29245873,0.003723211,-0.001141478,6.423391e-05,-0.3165795,-0.7213356,-9.837794
29265912,0.003650962,-0.001439467,0.0001898114,-0.3102448,-0.7184844,-9.839593
29285934,0.003493213,-0.001658672,0.0002535783,-0.314569,-0.7154529,-9.843314
29306135,0.003331746,-0.001881846,0.0004694729,-0.3200951,-0.7155728,-9.842237
29326313,0.00347083,-0.001447822,0.0003774097,-0.3211331,-0.7188377,-9.836856
29345919,0.003560746,-0.001266788,0.0002295839,-0.3233518,-0.7215213,-9.831676
29365982,0.003480915,-0.001338016,0.0002254718,-0.3153867,-0.7215105,-9.828253
29385939,0.003642091,-0.001578015,7.351967e-05,-0.3186088,-0.715413,-9.831344
29405929,0.003857807,-0.001942715,-0.0001494893,-0.3254172,-0.7184941,-9.836181
29426320,0.00417037,-0.001955954,-0.0002985104,-0.3294657,-0.7204337,-9.840914
29445910,0.004183414,-0.001869094,-0.0003946985,-0.3374461,-0.7141741,-9.847939
29466194,0.00414517,-0.002153141,-0.0004258341,-0.3301818,-0.7071969,-9.846922
29485934,0.004371899,-0.001903158,-0.0005494686,-0.3171419,-0.7163443,-9.841647
29505936,0.004678445,-0.001721162,-0.0004364403,-0.3193027,-0.7179921,-9.843715
29526311,0.004823432,-0.001599691,-0.0003501745,-0.3237332,-0.718417,-9.843802
29545898,0.004794611,-0.001294677,-0.0002477423,-0.3233485,-0.7158365,-9.844244
29565934,0.00483175,-0.00104434,-5.849317e-05,-0.3227819,-0.715304,-9.857181
29585976,0.004676498,-0.0009105037,-3.784365e-05,-0.3145669,-0.7198253,-9.8504
29605983,0.004562306,-0.0006101988,-0.0001507445,-0.3165895,-0.7223701,-9.842054
29626523,0.004411682,-0.0002515135,-8.584154e-05,-0.3124469,-0.7157767,-9.83733
29645895,0.003990951,-0.0002361606,-0.0001335111,-0.3264096,-0.7145965,-9.838916
29665930,0.003442604,0.000217759,-0.0001141283,-0.318095,-0.7156738,-9.845929
29685936,0.002903265,0.000491575,-9.839581e-05,-0.3129587,-0.7204067,-9.84446
29705916,0.002586706,0.0006993124,2.22734e-05,-0.3099771,-0.7185938,-9.842534
29726300,0.002632819,5.629475e-05,0.000147403,-0.3254204,-0.717125,-9.856337
29745902,0.002999339,-0.000381362,0.0002457277,-0.3289011,-0.7174907,-9.866451
29765973,0.003351327,-9.759794e-05,0.0002497164,-0.3259158,-0.7204337,-9.853645
29786111,0.003746994,-3.5275e-05,0.000122217,-0.3177566,-0.7155687,-9.83453
29805926,0.003952183,-0.0001752553,-2.600086e-05,-0.3148001,-0.7074013,-9.84002
29826351,0.003890331,-0.0004028724,-1.458987e-05,-0.3155098,-0.7057799,-9.8453
29845909,0.003962471,-0.001227748,6.339631e-05,-0.3164465,-0.7078561,-9.844648
29865966,0.004040038,-0.001707272,0.0002861142,-0.3107803,-0.7104944,-9.841702
29885990,0.003904815,-0.00228287,0.0002337303,-0.3126654,-0.7162793,-9.837963
29905961,0.004128901,-0.002620925,9.253813e-05,-0.3166495,-0.719623,-9.839704
29926292,0.004464937,-0.003106126,-5.052671e-05,-0.3157135,-0.714326,-9.840911
29946113,0.004295103,-0.002901897,-8.039349e-05,-0.3079904,-0.7167969,-9.838502
29965967,0.004365942,-0.002196768,-0.0001585311,-0.3125733,-0.717041,-9.835947
29985911,0.004604489,-0.00181771,-0.0001517242,-0.3193846,-0.7093582,-9.841475
30005945,0.004566662,-0.001658802,-0.0001912385,-0.3236689,-0.7061492,-9.837859
30026324,0.004281783,-0.001559924,-0.0003425248,-0.3275636,-0.7023397,-9.838284
30045962,0.004087952,-0.001814335,-0.0003493114,-0.3238937,-0.7058553,-9.835329
30065971,0.00419824,-0.00214349,-0.0003294043,-0.3175874,-0.7126879,-9.830883
30085890,0.004551841,-0.002226401,-9.231699e-05,-0.3213956,-0.71288,-9.835184
30106117,0.004776518,-0.002254198,0.000333695,-0.3268047,-0.7131189,-9.834441
30126322,0.004998571,-0.002056021,0.0004708262,-0.3221872,-0.7092668,-9.849689
30145920,0.005163722,-0.002264601,0.0005026998,-0.3153387,-0.7094801,-9.84959
30165971,0.005100663,-0.002625047,0.0004605578,-0.3096933,-0.7155579,-9.840094
30185947,0.005079803,-0.00247609,0.0003308296,-0.3198755,-0.7095591,-9.83492
30205958,0.005261743,-0.002185817,0.0001339141,-0.3105385,-0.7033927,-9.846132
30226360,0.005297642,-0.002079366,8.036093e-05,-0.3108435,-0.7140024,-9.843312
30245887,0.004874133,-0.001918373,8.059003e-05,-0.3170071,-0.7188846,-9.844946
30266223,0.004377623,-0.001455736,0.0001248277,-0.3240415,-0.7147262,-9.847527
30285936,0.004137928,-0.001283658,0.0001695602,-0.3221724,-0.7119865,-9.843324
30305972,0.004065293,-0.000886954,0.000109406,-0.3201497,-0.7070305,-9.839136
30326382,0.003617076,-0.0004186275,0.0001877423,-0.3144218,-0.7078921,-9.832355
30345875,0.003308517,-0.0002299177,0.0003116513,-0.3146736,-0.701493,-9.82904
30366001,0.003438548,-0.0002087304,0.0003865959,-0.321559,-0.70702,-9.835393
30385911,0.003824987,-0.0006448435,0.0003518142,-0.3173047,-0.7056751,-9.835925
30405975,0.003977674,-0.0004131666,0.000366759,-0.3309284,-0.7073572,-9.843973
30426478,0.003955171,-0.000676818,0.0003802731,-0.3272466,-0.7090437,-9.848211
30445944,0.003810086,-0.001340539,0.0002535662,-0.3084246,-0.7111691,-9.841395
30465920,0.003967562,-0.002033943,0.0001328944,-0.3021795,-0.7144222,-9.830503
30485940,0.004279062,-0.003015056,-2.378602e-05,-0.3148251,-0.7095451,-9.82069
30505955,0.004491543,-0.003454288,2.26671e-05,-0.3096046,-0.7121029,-9.824655
30526301,0.004451439,-0.003694409,7.68898e-05,-0.2991333,-0.7143511,-9.830826
30545904,0.004218887,-0.00397701,7.234994e-05,-0.3041038,-0.7148392,-9.842578
30565956,0.004255417,-0.003983811,3.392649e-05,-0.3205565,-0.717589,-9.853894
30586209,0.004531546,-0.003673516,-9.131008e-05,-0.3308691,-0.71736,-9.85017
30605936,0.00460339,-0.00254409,-0.0002051244,-0.3192159,-0.7122664,-9.828103
30626308,0.004744132,-0.001579394,-0.0003955064,-0.3134898,-0.7133419,-9.834771
30645884,0.004641077,-0.0008512204,-0.0003569698,-0.3099457,-0.7120246,-9.842052
30665938,0.004363829,-0.000186675,-7.813701e-05,-0.3162281,-0.7105222,-9.840552
30685950,0.004270098,-0.0005144087,0.0002202539,-0.3233243,-0.7088631,-9.837573
30705910,0.004060485,-0.001402396,0.0004189224,-0.3171766,-0.710247,-9.828651
30726339,0.003921054,-0.002029997,0.0005157391,-0.3192643,-0.7107167,-9.826803
30746189,0.004112778,-0.002154009,0.0005974058,-0.3280172,-0.7067246,-9.828067
30765914,0.004079294,-0.002097423,0.0006411555,-0.3243039,-0.7081918,-9.832357
30785954,0.004097878,-0.002211416,0.000682708,-0.3206507,-0.7100098,-9.833351
30805918,0.004197574,-0.002034533,0.0006664863,-0.3205285,-0.7132347,-9.834222
30826300,0.004214117,-0.001711309,0.0005048685,-0.309192,-0.7069143,-9.83098
30845892,0.004390657,-0.001422096,0.0001233693,-0.3204022,-0.7088393,-9.835429
30865958,0.004469377,-0.001096928,-0.0001237043,-0.3275735,-0.7054497,-9.842687
30885965,0.004170621,-0.001038925,-0.0002121597,-0.3267241,-0.7069024,-9.835361
30906154,0.003886601,-0.001006754,-0.0002456631,-0.3245458,-0.7072052,-9.833394
30926284,0.003978211,-0.001055243,-0.000476669,-0.3243478,-0.704208,-9.8431
30945931,0.004106921,-0.001020009,-0.0005438773,-0.3160636,-0.710614,-9.839276
30965978,0.004297172,-0.001295546,-0.0003681926,-0.3190499,-0.7032374,-9.829896
30985947,0.004689767,-0.001820803,-1.797515e-05,-0.3169757,-0.6985655,-9.81673
31005970,0.005003668,-0.001962043,-9.047811e-07,-0.3199446,-0.696674,-9.836008
31026291,0.005067522,-0.001835529,0.0001783488,-0.3280463,-0.6964924,-9.843196
31045938,0.004724717,-0.001496776,0.0002646169,-0.3199305,-0.7027773,-9.843741
31066237,0.004401032,-0.00168741,0.0004447729,-0.3186739,-0.7010247,-9.842845
31085935,0.004258935,-0.0019724,0.0006464446,-0.3193156,-0.7032691,-9.843532
31105944,0.00454538,-0.00260881,0.0006801084,-0.3174451,-0.7067333,-9.83787
31126331,0.004691914,-0.003296167,0.0006398063,-0.3173735,-0.708807,-9.842842
31145914,0.004416335,-0.003547617,0.0006121256,-0.3157008,-0.7104372,-9.843823
31165944,0.004386739,-0.003298881,0.0006605599,-0.3112182,-0.7106298,-9.838715
31185920,0.004238327,-0.002807954,0.0006803983,-0.3218445,-0.7086689,-9.848228
31205968,0.003880907,-0.002357627,0.000643461,-0.3215444,-0.704554,-9.85002
31226474,0.003660778,-0.002470723,0.0007518161,-0.3188618,-0.7082846,-9.842115
31245873,0.003624223,-0.002668892,0.0005970732,-0.3162825,-0.7074926,-9.840835
31265972,0.003597524,-0.002757984,0.0002000542,-0.3146113,-0.7052015,-9.84394
31285916,0.00368345,-0.002670597,-0.00013258,-0.3107328,-0.7032792,-9.855122
31305898,0.003861387,-0.002509103,-0.0003063858,-0.3102646,-0.7087196,-9.846749
31326302,0.003929318,-0.002366203,-0.0002824629,-0.321173,-0.7097827,-9.840504
31345922,0.004052588,-0.002270014,-0.0002315982,-0.317804,-0.7080985,-9.845528
31365912,0.00400602,-0.002250012,-5.137702e-05,-0.3141798,-0.7005568,-9.838203
31386117,0.003810398,-0.00171695,0.0001750171,-0.3173924,-0.7048076,-9.835265
31405908,0.003373434,-0.001471619,0.0002620163,-0.3134087,-0.7075351,-9.835644
31426330,0.00322739,-0.001865746,0.0002480033,-0.3205569,-0.7078735,-9.841124
31445931,0.003282133,-0.00257108,0.0001469543,-0.3293245,-0.7066186,-9.848174
31465916,0.003396697,-0.002981849,6.447685e-05,-0.3251706,-0.700103,-9.846034
31485918,0.003299683,-0.002782019,0.0001720028,-0.3267368,-0.7031617,-9.839855
31505906,0.003156062,-0.002443774,0.0001417644,-0.3249297,-0.7099865,-9.841387
31526302,0.0032433,-0.001954035,0.0003036827,-0.3215782,-0.7162558,-9.842188
31546103,0.003619063,-0.002373783,0.0003844408,-0.3200031,-0.7104086,-9.83778
31565975,0.003974251,-0.002873248,0.000408898,-0.3175101,-0.7077908,-9.831033
31585906,0.00436282,-0.002750964,0.0004120895,-0.3204172,-0.7062154,-9.839421
31605979,0.004520908,-0.002709101,0.0005059589,-0.3292502,-0.7086269,-9.844551
31626312,0.004568347,-0.002605814,0.0006881341,-0.3280418,-0.7164083,-9.852365
31645930,0.00480915,-0.002564838,0.0006141176,-0.3240843,-0.7131677,-9.849136
31665925,0.005029457,-0.00219794,0.000582992,-0.3185705,-0.711132,-9.844266
31685899,0.005040849,-0.001925497,0.0003805766,-0.3167265,-0.7113297,-9.852077
31706220,0.005217914,-0.001793443,5.413644e-05,-0.3321256,-0.7068869,-9.858314
31726300,0.00526842,-0.001516014,4.946393e-07,-0.3193198,-0.7135737,-9.856592
31745880,0.005172327,-0.001732487,-4.993719e-05,-0.315242,-0.7166426,-9.841579
31765924,0.005036728,-0.00217921,-0.0002031412,-0.31681,-0.7136147,-9.842778
31785956,0.004809781,-0.002159121,-0.0001025975,-0.32562,-0.715503,-9.838948
31805922,0.00472484,-0.001811914,-9.491089e-05,-0.3254559,-0.7194945,-9.831288
31826316,0.004333611,-0.001205371,-5.616304e-06,-0.3234968,-0.7099228,-9.847525
31845876,0.004006315,-0.0008318799,7.994061e-05,-0.3216641,-0.7035874,-9.846762
31866204,0.003525831,-0.0005292094,2.700608e-05,-0.3179257,-0.7001741,-9.848771
31885900,0.003124913,-0.0004808624,-4.299774e-05,-0.3144862,-0.7079574,-9.843693
31905952,0.002802253,-0.000715794,-0.0002138643,-0.3150765,-0.7167035,-9.83928
31926348,0.002772827,-0.001326831,-0.0002796699,-0.3255222,-0.7118481,-9.843265
31945930,0.003030237,-0.001804034,-0.0003697359,-0.3200828,-0.7044821,-9.841492
31965992,0.003758471,-0.002167521,-0.0004285125,-0.3286026,-0.7023043,-9.844565
31985912,0.003985167,-0.00203951,-0.0003856705,-0.3201928,-0.7012615,-9.838364
32005932,0.003684747,-0.001773228,-7.29378e-05,-0.3154648,-0.7037233,-9.836138
32026490,0.00320864,-0.001161749,0.0002058141,-0.3177572,-0.7070009,-9.853147
32045877,0.003026276,-0.0005621459,0.0003141927,-0.3272409,-0.710543,-9.842079
32065960,0.002880064,-0.0003488288,0.0002845619,-0.3294543,-0.7113904,-9.835554
32085887,0.003032612,-0.0004732923,0.0003217075,-0.3353028,-0.7109343,-9.825325
32105959,0.003416502,-0.0006790306,0.00041749,-0.3217004,-0.7085715,-9.833649
32126357,0.003661131,-0.0009057822,0.0004753089,-0.3133649,-0.7072582,-9.843654
32145877,0.003666693,-0.001327907,0.000570625,-0.3174346,-0.6982142,-9.838019
32165921,0.003870811,-0.001547296,0.0005186995,-0.3186849,-0.702022,-9.830894
32186219,0.004366094,-0.001976586,0.0005213885,-0.3304866,-0.7061528,-9.832413
32205983,0.004864736,-0.002472985,0.0004384951,-0.3310992,-0.7086143,-9.837707
32226344,0.004639789,-0.00278051,0.0005885957,-0.3314544,-0.7104173,-9.840723
32245858,0.004187363,-0.002919489,0.0004953215,-0.3256401,-0.7081528,-9.836065
32265914,0.003805819,-0.002917687,0.00047163,-0.3179208,-0.7093747,-9.831952
32285917,0.003714838,-0.002398467,0.0004932988,-0.3122257,-0.7062948,-9.831314
32305928,0.003504358,-0.0015884,0.0004585909,-0.3137224,-0.7070124,-9.835193
32326291,0.003290057,-0.0009533468,0.0004186636,-0.3188124,-0.704913,-9.837091
32346199,0.003222201,-0.0009087191,0.0002579204,-0.3207966,-0.7021556,-9.843636
32365987,0.003232182,-0.0009831461,7.198939e-05,-0.3244459,-0.7040418,-9.847863
32385968,0.003464854,-0.001054736,7.809947e-05,-0.3285382,-0.7127913,-9.841918
32405934,0.003646601,-0.0009301261,2.210511e-05,-0.3242727,-0.7138525,-9.841761
32426331,0.003666885,-0.0005046785,1.316941e-05,-0.3288598,-0.7046725,-9.846429
32445961,0.003853888,-0.0001403979,-0.000267257,-0.3216453,-0.7024694,-9.847967
32465950,0.00398592,0.0003553889,-0.0003884401,-0.3140363,-0.7092384,-9.847179
32485938,0.004161433,0.0004777344,-0.0005451429,-0.3162495,-0.7123134,-9.835992
32506165,0.004448134,0.0001792367,-0.0005929504,-0.3136137,-0.7160372,-9.834357
32526301,0.004360023,-0.0002968925,-0.0004482395,-0.3118104,-0.7094687,-9.8382
32545922,0.004510032,-0.0009107293,-0.0002297428,-0.3275639,-0.7141532,-9.849655
32565926,0.004414153,-0.001581951,-0.0001485866,-0.3277723,-0.7139806,-9.838971
32585933,0.004105807,-0.001935233,-0.0001692995,-0.3234372,-0.7096775,-9.824435
32605908,0.003867667,-0.001964571,-0.0003039523,-0.3266,-0.7096137,-9.832506
32626311,0.003728914,-0.001372597,-0.0002134411,-0.3188054,-0.7034997,-9.824666
32645933,0.003661033,-0.0007024339,-0.0002157492,-0.3122414,-0.7098739,-9.813618
32666140,0.003608478,-0.0007437191,-0.0002460455,-0.3124367,-0.7134069,-9.811637
32685894,0.003281696,-0.0006813576,-0.0002381827,-0.3104535,-0.7052441,-9.818984
32705925,0.003578147,-0.0009853041,-0.0002835468,-0.3128392,-0.7023709,-9.822274
32726389,0.003890724,-0.001235219,-9.29017e-05,-0.3224417,-0.7026144,-9.832043
32745917,0.003990119,-0.001615816,0.0001254681,-0.3183976,-0.7098732,-9.841708
32766029,0.003948892,-0.002313728,0.0004015852,-0.3157286,-0.7053443,-9.84602
32785951,0.00362137,-0.002992152,0.0005934727,-0.3281919,-0.7057865,-9.837347
32805920,0.003658718,-0.00302933,0.0007331948,-0.3312312,-0.7030003,-9.83749
32826565,0.003595292,-0.002810958,0.0006843026,-0.3248234,-0.7070636,-9.835715
32845874,0.003412574,-0.002728569,0.0004855453,-0.3228432,-0.7088869,-9.838305
32865976,0.003508372,-0.002487855,0.0005393667,-0.3196355,-0.7088845,-9.835134
32885905,0.003572402,-0.00259183,0.0005153128,-0.3123944,-0.7062463,-9.830858
32905950,0.003473287,-0.002749913,0.0004961891,-0.317518,-0.7120225,-9.832519
32926380,0.003030258,-0.002599807,0.0004458803,-0.3215407,-0.712767,-9.837839
32945888,0.002700053,-0.002432479,0.0003555569,-0.3189726,-0.7110935,-9.83241
32966014,0.002649526,-0.00232284,0.0004913447,-0.318428,-0.7068975,-9.843628
32986181,0.002956155,-0.002548724,0.0004500312,-0.316379,-0.7059855,-9.845974
33005907,0.003291048,-0.002482844,0.00027369,-0.313489,-0.7092848,-9.834441
33026294,0.00320965,-0.002040052,0.0002648195,-0.3217188,-0.714744,-9.83897
33045881,0.002705208,-0.0008947377,0.0003841867,-0.3183853,-0.7133108,-9.849015
33065970,0.002075799,-5.50919e-05,0.0004163074,-0.320382,-0.7112505,-9.840981
33085896,0.002276513,0.0001782725,0.0002855897,-0.3225029,-0.7065961,-9.833385
33105980,0.002695931,0.0003739435,1.16592e-05,-0.3261015,-0.7073314,-9.828918
33126313,0.003192506,-6.105097e-05,-9.530488e-05,-0.3226295,-0.7045611,-9.828817
33146104,0.003863092,-0.0006511783,-9.956554e-05,-0.3268014,-0.7054328,-9.824063
33165985,0.00438534,-0.001469835,-0.0001169533,-0.3228725,-0.7041806,-9.826478
33185902,0.004525385,-0.001682647,5.687747e-05,-0.3123406,-0.7040282,-9.825365
33205909,0.004528697,-0.002147249,0.0002534204,-0.3063671,-0.7086436,-9.827641
33226329,0.004379685,-0.002569546,0.0003579993,-0.31363,-0.7112773,-9.848363
33245922,0.00401692,-0.002576531,0.0003200218,-0.3129376,-0.7083898,-9.842541
33265920,0.003481961,-0.001958229,0.0003586163,-0.3174224,-0.7086857,-9.842538
33285886,0.003277801,-0.0009986514,0.0002711443,-0.3307685,-0.7075243,-9.838431
33306145,0.003671699,-0.0004311357,0.0004576189,-0.3390753,-0.7048314,-9.835073
33326311,0.004074061,-0.0003378336,0.0004240863,-0.3354713,-0.7087308,-9.841309
33345882,0.004281621,-0.0007529799,0.0003929206,-0.3259348,-0.7074355,-9.854377
33365956,0.004433236,-0.00125235,0.0003617516,-0.312329,-0.705742,-9.835335
33385895,0.004430424,-0.001556298,0.000342269,-0.3133866,-0.706377,-9.824998
33405947,0.004494553,-0.00175645,0.0003164965,-0.3139108,-0.7093952,-9.826947
33426369,0.004440579,-0.001665635,0.0002971841,-0.3144952,-0.7025331,-9.831275
33445905,0.004336837,-0.001769948,0.0003239269,-0.3150925,-0.7068291,-9.829435
33466209,0.004212509,-0.001912132,0.0003033086,-0.3083296,-0.7030379,-9.831339
33485947,0.003609179,-0.001668222,0.0002061305,-0.3061381,-0.7050838,-9.834282
33505946,0.003237579,-0.001818628,0.0002268293,-0.3132308,-0.7061186,-9.833882
33526307,0.003438702,-0.002002258,0.0001098104,-0.3136581,-0.704332,-9.835951
33545952,0.003588631,-0.002092414,0.0001775388,-0.3203712,-0.7029848,-9.842855
33565951,0.003497713,-0.001743993,0.0001537703,-0.3156808,-0.7071747,-9.850057
33585905,0.003235355,-0.001110034,-9.032865e-05,-0.3144092,-0.7114804,-9.841773
33605905,0.003026348,-0.000895124,-0.0003822665,-0.3207129,-0.7071944,-9.839712
33626504,0.003113508,-0.001047972,-0.0006832429,-0.3198459,-0.7041482,-9.834047
33645885,0.00318197,-0.001158271,-0.0008328092,-0.3165171,-0.7002936,-9.844344
33665978,0.003222987,-0.001084677,-0.0007026487,-0.32322,-0.7039841,-9.844969
33685962,0.003236667,-0.0009403995,-0.0005897824,-0.3186867,-0.7043136,-9.841255
33705917,0.003388637,-0.001210109,-0.0003884392,-0.3191579,-0.7032639,-9.83737
33726311,0.003491732,-0.001453543,-0.0003045266,-0.3158321,-0.7064276,-9.829141
33745907,0.003701056,-0.001492622,-0.0001382927,-0.3168099,-0.7051319,-9.833226
33765968,0.00394626,-0.001195508,3.411327e-05,-0.3135687,-0.7034879,-9.839743
33786108,0.004319904,-0.001223014,0.0001486993,-0.3153716,-0.7078534,-9.840223
33805926,0.00457747,-0.001644572,0.0002295937,-0.3196452,-0.7099234,-9.84978
33826318,0.004769288,-0.001834788,0.0001690755,-0.3280171,-0.7081,-9.83871
33845899,0.004596103,-0.001640499,0.0002534953,-0.3348826,-0.7076654,-9.836423
33866006,0.004509679,-0.001278738,0.0003714836,-0.3238765,-0.7072417,-9.8329
33885984,0.004498246,-0.001209975,0.0004364697,-0.328225,-0.7038409,-9.844427
33905975,0.003964923,-0.001146854,0.0005020319,-0.329139,-0.7050745,-9.849068
33926297,0.003645492,-0.0007695489,0.0004572361,-0.3198073,-0.7089502,-9.8321
33946108,0.0035005,-0.0003581227,0.0004786265,-0.3174888,-0.7050329,-9.823843
33965976,0.003507037,-0.0004961831,0.0005315716,-0.311284,-0.6965715,-9.82945
33985918,0.003766056,-0.0008825874,0.0003203396,-0.3112602,-0.7074082,-9.838416
34005916,0.004066581,-0.001278163,0.0001350205,-0.3065803,-0.7121259,-9.828716
34026313,0.004123343,-0.001280572,9.224006e-05,-0.309826,-0.7070659,-9.820897
34045887,0.004192302,-0.001561266,9.347796e-05,-0.3115936,-0.7057499,-9.834322
34065993,0.004233828,-0.001778639,4.783438e-05,-0.3099411,-0.7081198,-9.844068
34085920,0.004458815,-0.001953765,7.814699e-05,-0.3152456,-0.7177904,-9.838578
34106173,0.004324775,-0.002008139,-5.198771e-05,-0.3153526,-0.7182123,-9.847406
34126333,0.004001127,-0.001724613,-3.219696e-05,-0.3202374,-0.716956,-9.845578
34145944,0.00359334,-0.001210098,8.81758e-05,-0.3198744,-0.715149,-9.840674
34165928,0.003604232,-0.001157664,0.0001575961,-0.3217905,-0.7105215,-9.839156
34185888,0.003950834,-0.001511583,0.0001024705,-0.3312693,-0.7137291,-9.84754
34205978,0.004021508,-0.001651245,-1.486289e-05,-0.3316803,-0.7146378,-9.846893
34226337,0.004215354,-0.001622424,-0.0004213616,-0.3298552,-0.707442,-9.840034
34245874,0.004080321,-0.001647459,-0.0004012585,-0.3169917,-0.7082123,-9.836515
34266137,0.003852878,-0.001998505,-0.0001250386,-0.3128993,-0.7110494,-9.844085
34285941,0.003422679,-0.002260273,4.0826e-05,-0.325867,-0.7153694,-9.854559
34305910,0.003395756,-0.002768782,0.0001758573,-0.3223262,-0.7144316,-9.843546
34326311,0.003547531,-0.002865151,0.0003845575,-0.3113119,-0.7073264,-9.841861
34345917,0.004226537,-0.00270619,0.0004411982,-0.3089607,-0.7062127,-9.838177
34365939,0.004856233,-0.002607139,0.0002703681,-0.3138191,-0.7043153,-9.835737
34385878,0.004686264,-0.002370189,0.0001446111,-0.3152521,-0.7086483,-9.839141
34405989,0.00465859,-0.002370323,5.805321e-05,-0.3133359,-0.7107232,-9.841945
34426484,0.004534045,-0.002490028,-0.0001493018,-0.3226764,-0.7131322,-9.842772
34445877,0.004356689,-0.002532189,-0.0002321737,-0.3168886,-0.7128865,-9.838405
34465975,0.004325503,-0.00249693,-0.0002456004,-0.3158292,-0.7056604,-9.844146
34485931,0.004475938,-0.002613592,-7.511309e-05,-0.3198336,-0.7079331,-9.844168
34505915,0.004400394,-0.002364784,0.0001933619,-0.31943,-0.7055744,-9.845576
34526294,0.004505533,-0.002294596,0.0004372782,-0.3231327,-0.7081491,-9.838223
34545904,0.004801011,-0.002778561,0.00058342,-0.3265693,-0.7075493,-9.833793
34565915,0.004940504,-0.002922674,0.000686995,-0.3260932,-0.7005731,-9.83301
34586116,0.004925494,-0.002929913,0.000808853,-0.3219432,-0.7033951,-9.838686
34605959,0.004816497,-0.002296392,0.0007842412,-0.3206114,-0.7116911,-9.843092
34626366,0.004509733,-0.002056475,0.0005543774,-0.3186004,-0.7101378,-9.850624
34645887,0.004051854,-0.002042406,0.0003798229,-0.3118932,-0.7062353,-9.838415
34665974,0.003620868,-0.001806584,0.0003321116,-0.3131521,-0.709705,-9.82946
34685945,0.003359464,-0.001681965,0.0002061495,-0.3232905,-0.7044885,-9.839832
34705945,0.003395452,-0.001831512,0.0001511442,-0.3228293,-0.7010916,-9.840745
34726331,0.003671647,-0.001767533,1.702678e-05,-0.3111732,-0.7041424,-9.839293
34746176,0.003951763,-0.001588822,-4.933399e-05,-0.3141661,-0.7084504,-9.833609
34765961,0.004163486,-0.001637781,-0.0001059659,-0.326142,-0.7102662,-9.82982
34785907,0.004220579,-0.001674029,7.99944e-06,-0.3245068,-0.7036704,-9.841025
34805943,0.004221152,-0.001422184,0.0001626472,-0.3160034,-0.7103848,-9.83873
34826318,0.004333949,-0.001049258,0.0002462401,-0.319278,-0.7123473,-9.830468
34845910,0.004379177,-0.001243052,0.0003201748,-0.3228523,-0.7162917,-9.832363
34865978,0.004619903,-0.001824371,7.182044e-05,-0.3171518,-0.7169203,-9.833583
34885947,0.004874182,-0.002522326,-7.407992e-05,-0.3112806,-0.7138898,-9.829659
34906147,0.004746975,-0.002859356,-0.0002294899,-0.3098281,-0.7079164,-9.825185
34926316,0.004645672,-0.002732956,-0.0003712115,-0.3106421,-0.7106788,-9.828959
34945909,0.004480093,-0.002683195,-0.0003682236,-0.3120517,-0.7111546,-9.839955
34965936,0.004467835,-0.003104497,-0.0002231876,-0.314175,-0.7109356,-9.849793
34985882,0.004723494,-0.003391889,-2.6181e-05,-0.3178516,-0.7057632,-9.85154
35005902,0.004986891,-0.003453652,0.0001093247,-0.3198508,-0.7091974,-9.844294
35026300,0.005075883,-0.00317684,0.0002093045,-0.3156237,-0.712635,-9.847397
35045923,0.005069797,-0.002737955,0.0002971348,-0.3144157,-0.7138647,-9.850119
35066209,0.004786022,-0.002317881,0.000216018,-0.3203301,-0.7071685,-9.83018
35085907,0.004421841,-0.001880364,0.0001513306,-0.3217784,-0.7163633,-9.836689
35105976,0.004052207,-0.001397462,0.0001789578,-0.3298145,-0.7166401,-9.842161
35126323,0.004049304,-0.001213005,0.0001299672,-0.3311915,-0.7112716,-9.850013
35145879,0.004008033,-0.001202883,0.0002496276,-0.326249,-0.7070351,-9.847088
35165939,0.004146905,-0.0008675975,0.0003411606,-0.3227721,-0.7107674,-9.84158
35185932,0.004270215,-0.0008902755,0.0003491211,-0.3128381,-0.7120954,-9.848105
35205916,0.004533829,-0.001542306,0.0002592297,-0.3110803,-0.7114296,-9.847268
35226531,0.004700594,-0.002021266,0.0002309822,-0.3015214,-0.7068977,-9.842151
35245908,0.00460904,-0.002028115,0.0002583796,-0.2995829,-0.7054363,-9.835234
35265951,0.004139296,-0.001767409,0.0002881915,-0.3055384,-0.7075095,-9.835454
35285877,0.003911083,-0.001870812,0.0002343408,-0.3086947,-0.7129771,-9.84306
35305893,0.003751105,-0.001613676,2.472739e-05,-0.3106575,-0.7134933,-9.845303
35326310,0.003716814,-0.00163444,-0.0002237317,-0.3200528,-0.7140706,-9.852501
35345922,0.003647994,-0.0009662127,-0.0003007514,-0.3214342,-0.7174641,-9.845329
35365918,0.003541164,-0.0002764924,-0.0003269681,-0.3280893,-0.7143023,-9.838679
35386241,0.003297399,0.000317795,-0.0003711798,-0.3280947,-0.7090722,-9.831447
35405921,0.003066943,0.0004726097,-0.0001656079,-0.3254727,-0.7085823,-9.832868
35426308,0.003524015,-0.0001836618,-1.765589e-05,-0.313054,-0.7116473,-9.84145
35445961,0.003993944,-0.0007853021,-1.718364e-06,-0.3111814,-0.7138377,-9.847427
35466010,0.004160176,-0.0009857594,-0.0001878738,-0.3157865,-0.7152422,-9.843435
35485890,0.004311156,-0.0008829249,-0.0002870391,-0.320818,-0.7131851,-9.834657
35505973,0.004409537,-0.00126165,-0.0005458792,-0.3196627,-0.7118358,-9.832527
35526383,0.004406748,-0.001733695,-0.0009475249,-0.3205395,-0.7121828,-9.839043
35546125,0.004181317,-0.002177814,-0.0009987695,-0.3180449,-0.7058026,-9.834257
35565911,0.003778215,-0.002908799,-0.000964949,-0.3258362,-0.7052305,-9.837337
35585882,0.00401508,-0.003284022,-0.0006247202,-0.334518,-0.7017388,-9.842416
35605956,0.004331415,-0.00342383,-0.0001065353,-0.3269495,-0.705821,-9.836538
35626360,0.004572242,-0.003298449,0.0002710333,-0.3239191,-0.7147266,-9.836092
35645957,0.004496844,-0.002946098,0.0003562178,-0.3165664,-0.7146955,-9.846979
35665954,0.004105885,-0.00234591,0.0004475278,-0.3099665,-0.7204899,-9.854038
35685889,0.003716343,-0.002064922,0.0003862297,-0.3147972,-0.7118849,-9.845645
35706230,0.003145679,-0.00169484,0.000389376,-0.3271947,-0.7053728,-9.84973
35726379,0.002652591,-0.001791724,0.0004504683,-0.3228939,-0.7104711,-9.835671
35745861,0.002091432,-0.001893316,0.0005032598,-0.3163425,-0.7085733,-9.836273
35765963,0.001998853,-0.001933949,0.0003200195,-0.3212848,-0.7115967,-9.843864
35785927,0.00255657,-0.001762228,6.557245e-05,-0.3242865,-0.7153006,-9.830098
35805922,0.003154918,-0.001728034,-9.020956e-05,-0.3176843,-0.7166289,-9.834805
35826360,0.003385172,-0.0011301,-4.373387e-05,-0.3076745,-0.7124094,-9.833914
35845920,0.003600524,-0.00126228,0.0001675008,-0.3197799,-0.7089037,-9.845001
35866152,0.003870832,-0.001926726,0.0004186648,-0.3285494,-0.7034138,-9.845477
35885940,0.003977623,-0.002426733,0.00062671,-0.3255683,-0.7063439,-9.836188
35905909,0.00422193,-0.002563056,0.0005101907,-0.3161929,-0.7051896,-9.826957
35926329,0.004053973,-0.002686061,0.0004304172,-0.3154093,-0.7100836,-9.828555
35945909,0.003772789,-0.002819113,0.0003472193,-0.3219108,-0.711985,-9.844196
35965970,0.003530473,-0.002884632,0.0001970907,-0.3098277,-0.7131557,-9.851985
35985949,0.003464122,-0.002603675,6.016882e-05,-0.3180089,-0.7058676,-9.849202
36005906,0.003233373,-0.002279305,-1.5399e-07,-0.323285,-0.7047951,-9.845239
36026532,0.003036025,-0.00195384,8.55379e-05,-0.3217498,-0.7072611,-9.844431
36045912,0.003324235,-0.00181645,0.0002140546,-0.3143545,-0.7066396,-9.83342
36065932,0.003447962,-0.002011259,0.0002079216,-0.3154221,-0.7094857,-9.835168
36085912,0.003857577,-0.002123384,-2.037405e-05,-0.3164304,-0.7162389,-9.84601
36105902,0.004204853,-0.002044141,-0.0002486229,-0.314783,-0.7101553,-9.852119
36126352,0.004307174,-0.001358912,-0.0002934929,-0.3097681,-0.7056661,-9.848039
36145892,0.004037166,-0.0006185445,-0.0003491,-0.3194649,-0.7030554,-9.847039
36165905,0.003745102,-0.0007020533,-0.0003539023,-0.3290026,-0.7107275,-9.841551
36186214,0.003481075,-0.0008457404,-0.000337478,-0.317785,-0.7097799,-9.844279
36205921,0.003130473,-0.001061034,-0.000283817,-0.3239582,-0.7085618,-9.847794
36226304,0.003219014,-0.001583612,-8.864918e-05,-0.3249002,-0.708188,-9.837697
36245879,0.003092235,-0.00177901,0.0002114263,-0.3238168,-0.7019182,-9.840518
36266004,0.003234206,-0.001643099,0.0005553881,-0.3296294,-0.6976311,-9.836935
36285893,0.003126001,-0.001784944,0.0005448075,-0.3263991,-0.7053956,-9.835722
36305920,0.002991969,-0.001963357,0.0005063274,-0.3236529,-0.7136452,-9.849949
36326342,0.003174317,-0.002278936,0.0004274811,-0.3217125,-0.7079907,-9.84546
36346190,0.003401273,-0.002305113,0.000424693,-0.3311727,-0.7062894,-9.842019
36365974,0.003812447,-0.002345709,0.0002695403,-0.3260585,-0.7094625,-9.843718
36385910,0.004152197,-0.002655385,0.0002047739,-0.316975,-0.7111226,-9.845553
36405900,0.004161418,-0.00244977,0.0003849873,-0.3167499,-0.7096427,-9.836474
36426304,0.003997729,-0.002235104,0.0005326309,-0.3135168,-0.7034478,-9.836018
36445917,0.004042626,-0.002464201,0.0005888095,-0.3235112,-0.7000089,-9.836953
36465926,0.004190431,-0.002835838,0.0005078217,-0.3221871,-0.7103558,-9.83614
36485884,0.004021071,-0.002308805,0.0004638487,-0.3257663,-0.7088479,-9.835171
36506206,0.004000078,-0.00173748,0.0004397362,-0.3218736,-0.7069489,-9.829405
36526300,0.003971747,-0.001256547,0.0005170297,-0.3180081,-0.7029627,-9.835675
36545916,0.004123133,-0.001157785,0.0003133825,-0.3233275,-0.7040796,-9.8594
36565941,0.004195926,-0.0009458946,3.729538e-05,-0.3249296,-0.7064887,-9.862587
36585994,0.004206229,-0.0008334788,-0.0001754191,-0.3227628,-0.7037222,-9.84116
36605948,0.004200218,-0.001750347,-0.0003253399,-0.3222023,-0.6991758,-9.841438
36626320,0.004163826,-0.002535179,-0.0002227131,-0.3259687,-0.7029743,-9.840438
36645942,0.004037478,-0.002585309,-0.0001060583,-0.3149778,-0.7108827,-9.835494
36666191,0.004168225,-0.002337656,-0.0001311198,-0.3218736,-0.7081769,-9.825716
36685957,0.004128992,-0.002726288,-2.283107e-05,-0.3268661,-0.7131545,-9.83535
36705985,0.004124307,-0.003076046,7.728376e-05,-0.3206111,-0.7140582,-9.831492
36726336,0.004002177,-0.002858854,-3.043415e-05,-0.3194509,-0.7048952,-9.832741
36745879,0.00389632,-0.002590521,-8.054902e-05,-0.3241746,-0.7092419,-9.840478
36765965,0.003821995,-0.002419624,-9.36306e-05,-0.322032,-0.7069652,-9.84052
36785933,0.003913878,-0.002128974,-7.230248e-05,-0.3233543,-0.7084541,-9.842394
36805879,0.003750032,-0.001800504,-8.578182e-05,-0.3201013,-0.7133339,-9.836833
36826501,0.003452892,-0.001313224,4.158402e-05,-0.3131007,-0.7084541,-9.842187
36845904,0.003244685,-0.0009521398,0.0002481095,-0.3080325,-0.7034994,-9.85076
36865948,0.003142162,-0.0007238478,0.0004377423,-0.3093398,-0.7083259,-9.840637
36885906,0.003206947,-0.0007343555,0.0003338859,-0.3072028,-0.711562,-9.830864
36905926,0.003487895,-0.0007629756,0.0001663347,-0.3160413,-0.7127612,-9.837394
36926331,0.003554805,-0.0009222295,0.0002046876,-0.3164958,-0.7170689,-9.836666
36945911,0.003560313,-0.0009226772,0.0002481161,-0.3184994,-0.7153986,-9.843564
36965931,0.003905761,-0.001298483,0.0004091107,-0.3210665,-0.7117579,-9.851136
36986173,0.004306442,-0.001297706,0.0004558895,-0.317555,-0.7077869,-9.842838
37005952,0.004556226,-0.001317093,0.0004786531,-0.3222907,-0.7061408,-9.840603
37026350,0.00493391,-0.001708816,0.0004769877,-0.3194839,-0.7020029,-9.826135
37045928,0.005184158,-0.002137101,0.0004926629,-0.3130201,-0.707487,-9.827017
37065953,0.005065332,-0.002555476,0.0005248549,-0.3195073,-0.7062584,-9.836235
37085901,0.004782704,-0.002654636,0.0005521157,-0.3322244,-0.7112741,-9.835555
37105958,0.004640842,-0.00295913,0.0004765251,-0.3262968,-0.7111636,-9.837335
37126325,0.004557751,-0.002959029,0.0002270368,-0.3216514,-0.707168,-9.841403
37146160,0.003989328,-0.00225864,0.0001663525,-0.3189669,-0.6980745,-9.839326
37165980,0.003426248,-0.001468976,0.0002287604,-0.3190665,-0.6942937,-9.840405
37185920,0.00335666,-0.001161897,0.0003423261,-0.3192342,-0.6971307,-9.834991
37205888,0.003613217,-0.00140091,0.0003967673,-0.3155053,-0.6957011,-9.829712
37226338,0.003936558,-0.001488974,0.0003294117,-0.3126032,-0.6943769,-9.839062
37245944,0.004027816,-0.001988606,0.0002236299,-0.3159807,-0.6947019,-9.845267
37265927,0.00399921,-0.00226957,0.0002727227,-0.3161034,-0.7055005,-9.853489
37285979,0.004232251,-0.002337053,0.0004009399,-0.3165903,-0.7106907,-9.842842
37306144,0.004346763,-0.002504216,0.0004842957,-0.317145,-0.7104089,-9.836695
37326323,0.004524933,-0.003261136,0.000605467,-0.3183996,-0.7071239,-9.819846
37345945,0.004421123,-0.003147716,0.0006963669,-0.3147746,-0.7031631,-9.824417
37365910,0.004177615,-0.002650484,0.0007390875,-0.3147762,-0.7064638,-9.824985
37385902,0.003828477,-0.00259052,0.0006923385,-0.3206336,-0.7074497,-9.832589
37405917,0.003617204,-0.002784784,0.000640541,-0.3207114,-0.7056311,-9.836008
37426321,0.00373472,-0.003032894,0.0005935665,-0.3112862,-0.7123024,-9.817572
37445963,0.003700853,-0.003191574,0.0006572261,-0.3111189,-0.710654,-9.834242
37466254,0.003792047,-0.002970897,0.0007178123,-0.3106292,-0.7054203,-9.837198
37485887,0.003979063,-0.00268126,0.000726291,-0.3216745,-0.701143,-9.82957
37505983,0.004004485,-0.002386004,0.0006876073,-0.3239823,-0.7029948,-9.82429
37526307,0.003840263,-0.002216125,0.0005552646,-0.3215901,-0.7004156,-9.829947
37545909,0.003827483,-0.001977674,0.0003515945,-0.3278791,-0.7073905,-9.837573
37565927,0.003914822,-0.001386334,0.0003202658,-0.3229462,-0.7057667,-9.83708
37585964,0.004320826,-0.001180103,0.0002923978,-0.3149855,-0.7094142,-9.835071
37605941,0.004634953,-0.001420606,3.35919e-05,-0.310357,-0.7116911,-9.837461
37626474,0.00468804,-0.001416488,-4.104038e-05,-0.3150755,-0.7072463,-9.840529
37645891,0.004934454,-0.00148392,-2.863486e-05,-0.3174328,-0.6994694,-9.847907
37665969,0.004788099,-0.001338518,1.197502e-05,-0.3224138,-0.6997014,-9.83909
37685896,0.004801037,-0.001353278,0.0001130802,-0.3194766,-0.7055336,-9.840387
37705895,0.004883282,-0.001506338,0.0001141255,-0.3213161,-0.7101762,-9.847208
37726320,0.00450907,-0.002008316,0.0001064394,-0.3243672,-0.7118954,-9.831013
37745928,0.004010714,-0.0026764,0.00033454,-0.3230214,-0.7065446,-9.837547
37765952,0.003926896,-0.003141186,0.0003768158,-0.3202616,-0.7007814,-9.837476
37786101,0.00404003,-0.002902279,0.000429308,-0.314173,-0.6977809,-9.829288
37805973,0.004098032,-0.002273308,0.0003720701,-0.3191909,-0.7031562,-9.837831
37826305,0.004244231,-0.001624409,0.0002255722,-0.3221742,-0.7047982,-9.843518
37845918,0.00435931,-0.001081446,0.0002821593,-0.3229503,-0.7081076,-9.843409
37865946,0.004528593,-0.0008165946,0.0003840803,-0.3196865,-0.7088261,-9.832196
37885894,0.004322993,-0.0005103455,0.000212217,-0.3242832,-0.7037622,-9.840322
37905968,0.004029199,-0.0007446548,0.0002115234,-0.3200371,-0.7047133,-9.836544
37926374,0.003831294,-0.0008356239,0.0002443847,-0.3242156,-0.7021666,-9.830089
37946196,0.003779992,-0.001358115,0.0002399602,-0.3187073,-0.7028614,-9.827883
37966027,0.003968962,-0.002143004,0.0003390358,-0.3218575,-0.7074541,-9.836208
37985914,0.004105372,-0.002486491,0.0004480653,-0.3334642,-0.7028824,-9.838484
38005956,0.004049045,-0.002486492,0.0002449183,-0.3305005,-0.697856,-9.836457
38026328,0.004092658,-0.002717284,0.0001767786,-0.3213501,-0.7046826,-9.836061
38045886,0.004129487,-0.002575314,0.0002104253,-0.3117347,-0.7095793,-9.841903
38066009,0.00423273,-0.002756985,0.0003322858,-0.3098227,-0.7070562,-9.82461
38085957,0.004475807,-0.002978093,0.0003897123,-0.3154035,-0.6953928,-9.818376
38106128,0.005087792,-0.003096093,0.0004319529,-0.3228779,-0.7011426,-9.825022
38126307,0.00561194,-0.003253945,0.0003490323,-0.3187412,-0.7101297,-9.83482
38145944,0.00547908,-0.002983786,0.0001681225,-0.3164764,-0.7138201,-9.841105
38165937,0.005228917,-0.002773625,0.0001066647,-0.3217903,-0.7058442,-9.830208
38185886,0.005003437,-0.002651524,0.0001329919,-0.3193042,-0.6930152,-9.82397
38205925,0.004704454,-0.00215402,0.0002161349,-0.3171839,-0.6942399,-9.829353
38226315,0.004715526,-0.001960924,0.0003510245,-0.320513,-0.7033629,-9.837631
38245890,0.004903419,-0.002261297,0.0004362968,-0.327164,-0.7064643,-9.842653
38266225,0.004465186,-0.001948064,0.0003943003,-0.3193768,-0.7038382,-9.843127
38285940,0.00436384,-0.001679356,0.0003428085,-0.3228675,-0.706295,-9.842473
38305902,0.004294079,-0.001058115,0.0004287481,-0.3191485,-0.7055892,-9.834416
38326304,0.004143075,-0.0006555026,0.0006022312,-0.3143378,-0.711651,-9.828404
38345903,0.004256247,-0.001171205,0.0006692957,-0.3167272,-0.7091354,-9.82556
38365981,0.004652563,-0.00175132,0.0005607551,-0.3332009,-0.7084955,-9.833293
38385941,0.004539549,-0.002243087,0.0004171016,-0.3278241,-0.7055919,-9.839216
38405974,0.004388538,-0.002767458,0.0002948565,-0.3199514,-0.7034451,-9.83864
38426500,0.004659518,-0.003120587,1.890078e-05,-0.3155405,-0.7027985,-9.835298
38445919,0.00467584,-0.002960076,-0.000246824,-0.319546,-0.6997546,-9.834208
38465923,0.004168068,-0.00231007,-0.000423469,-0.3176012,-0.7055311,-9.825186
38485967,0.003986286,-0.00135451,-0.0003986836,-0.314773,-0.7047765,-9.84059
38505928,0.003850369,-0.0008344653,-0.0001338228,-0.3240511,-0.7011939,-9.849025
38526324,0.003771642,-0.0007621384,0.0001288829,-0.3218998,-0.697951,-9.838483
38545963,0.003385808,-0.0006483012,0.0003099469,-0.3221297,-0.6957986,-9.834983
38565986,0.003384169,-0.0005209925,0.0002420277,-0.3203464,-0.7005759,-9.833049
38586111,0.003495289,-0.0008739188,0.0001553973,-0.3176368,-0.7003326,-9.834072
38605956,0.00366055,-0.001410346,9.16013e-05,-0.320281,-0.7049022,-9.83328
38626316,0.00351218,-0.001432684,0.0002605523,-0.3190248,-0.70467,-9.823618
38645946,0.0035082,-0.001334355,0.0004282472,-0.3181482,-0.7029015,-9.820083
38665955,0.003818506,-0.00146098,0.0003037808,-0.3166156,-0.7030786,-9.831961
38685882,0.004179801,-0.001496185,0.0003446107,-0.3110951,-0.7044504,-9.836715
38705977,0.00416973,-0.001375676,0.000517085,-0.3104488,-0.7078882,-9.837
38726313,0.004487001,-0.001304252,0.0005702833,-0.3164596,-0.7057366,-9.83917
38746194,0.00499786,-0.001118783,0.0005434559,-0.3189147,-0.7054792,-9.846895
38765928,0.005276893,-0.001044044,0.0006218135,-0.3269098,-0.7112922,-9.849175
38785895,0.005126814,-0.001281427,0.0005661628,-0.3216129,-0.7129217,-9.85759
38805977,0.005049148,-0.001315511,0.0003251141,-0.3177006,-0.7155182,-9.850704
38826317,0.005055198,-0.00137991,0.0002336246,-0.3019969,-0.7091603,-9.848769
38845895,0.004897669,-0.001261614,0.0001220811,-0.3036448,-0.7000273,-9.842541
38865998,0.004682865,-0.00116806,7.564673e-05,-0.3155398,-0.7072688,-9.826249
38885947,0.004296684,-0.001537854,2.879066e-05,-0.3229768,-0.7052183,-9.812855
38906139,0.003909768,-0.001281224,8.741161e-05,-0.323683,-0.7068973,-9.818211
38926334,0.003758098,-0.001281732,2.329866e-05,-0.3171053,-0.7036022,-9.83268
38945985,0.003553246,-0.001359006,-5.924711e-05,-0.3067445,-0.7058834,-9.838604
38965938,0.003693215,-0.001373185,-0.0002474129,-0.3060512,-0.7052743,-9.843836
38985893,0.003666535,-0.001269042,-0.0002623918,-0.3140072,-0.7059504,-9.844707
39005983,0.003621799,-0.001180031,-0.0001211786,-0.323985,-0.7027504,-9.842487
39026325,0.003826039,-0.00150932,7.994342e-05,-0.3262834,-0.7002491,-9.834752
39045924,0.004007392,-0.001648515,4.375508e-05,-0.3186569,-0.6953402,-9.834318
39066184,0.004102354,-0.001828917,3.878749e-05,-0.3206065,-0.696932,-9.836635
39085896,0.004474215,-0.00235405,9.375069e-05,-0.3233854,-0.7015371,-9.839052
39105970,0.004810878,-0.002362339,1.36757e-05,-0.3259885,-0.7080675,-9.843176
39126299,0.005030717,-0.002192845,-0.0001644488,-0.318949,-0.7055516,-9.828326
39145954,0.004824053,-0.001291817,-0.0002255215,-0.3068077,-0.703963,-9.829533
39165956,0.004337494,-0.0006851722,-0.0003093218,-0.3122431,-0.7073643,-9.825048
39185909,0.003840407,-0.0003376602,-0.0002122325,-0.3214732,-0.6996387,-9.829277
39205910,0.003714276,0.0002556905,8.953499e-06,-0.3221719,-0.6971977,-9.827758
39226491,0.003797754,0.0003388061,0.0002220542,-0.3272268,-0.6980175,-9.836567
39245958,0.003971947,-7.53409e-05,0.0004291591,-0.3292475,-0.6971653,-9.840871
39265920,0.00398943,0.0001651475,0.0006445835,-0.3161496,-0.698976,-9.840191
39285914,0.003945464,-4.309733e-05,0.0006966688,-0.317183,-0.7026415,-9.835923
39306005,0.004353984,-0.0004118794,0.0005821259,-0.3079414,-0.7060536,-9.840875
39326283,0.004699513,-0.0009900688,0.0004803675,-0.3190755,-0.7078515,-9.839251
39345879,0.004696462,-0.001219525,0.0005065859,-0.3284284,-0.7082621,-9.85007
39365912,0.004284492,-0.001408994,0.0005286625,-0.3227944,-0.7009958,-9.836173
39386092,0.004019137,-0.001339057,0.0006339931,-0.3160769,-0.7023081,-9.824744
39405933,0.004068051,-0.001202499,0.0007051352,-0.3268592,-0.7096559,-9.825209
39426346,0.004005466,-0.001389488,0.0007961625,-0.3296315,-0.7115689,-9.843323
39445966,0.003863371,-0.00145785,0.0007319763,-0.3242298,-0.704606,-9.841375
39465999,0.003746188,-0.001791071,0.0005780911,-0.32478,-0.7072158,-9.848287
39485936,0.003598881,-0.001714734,0.000263054,-0.3241029,-0.7058601,-9.847413
39505905,0.003477599,-0.0018043,0.0001283623,-0.3232248,-0.7016844,-9.8304
39526353,0.003241265,-0.00117512,2.748699e-05,-0.3222915,-0.7022521,-9.831535
39546230,0.002861746,-0.000768412,-4.128346e-05,-0.3168668,-0.701748,-9.828827
39565949,0.002841135,-0.001057978,-0.0001025634,-0.3098106,-0.7053512,-9.836892
39585886,0.002866602,-0.001245889,3.17396e-05,-0.3164774,-0.7137344,-9.855946
39605954,0.003307462,-0.001439527,0.0001447924,-0.3247503,-0.7089108,-9.859121
39626306,0.003588488,-0.002024669,0.0001150853,-0.3284509,-0.7000404,-9.856297
39645940,0.00367696,-0.002348539,0.0001312086,-0.3259861,-0.697992,-9.831182
39665982,0.003538462,-0.002155159,0.0001548501,-0.312426,-0.7033429,-9.830057
39685923,0.003580135,-0.001654829,0.0001666232,-0.3168871,-0.7103833,-9.828377
39706172,0.00384914,-0.001134514,0.0001038522,-0.3159558,-0.7050143,-9.82724
39726306,0.003840748,-0.001236207,1.156959e-05,-0.3124765,-0.6979571,-9.832085
39745879,0.004007426,-0.001611531,-0.0001597149,-0.3151224,-0.6985412,-9.831754
39765957,0.00433188,-0.001944065,-0.0003114472,-0.3258821,-0.7015948,-9.826295
39785911,0.004649504,-0.002041886,-0.0002910973,-0.3257519,-0.7054133,-9.825537
39805987,0.00461516,-0.002288668,-0.0002285815,-0.3259089,-0.7119614,-9.831418
39826303,0.004599477,-0.002804463,-6.262406e-05,-0.3108103,-0.7092563,-9.823629
39845933,0.004562689,-0.002777046,0.0001073096,-0.318104,-0.7055436,-9.83728
39866205,0.004413614,-0.002447649,0.0001330878,-0.3251641,-0.707102,-9.840446
39885875,0.004304298,-0.001854842,2.353451e-05,-0.3121805,-0.7054487,-9.836206
39905943,0.004246803,-0.001285692,-0.00013529,-0.3032646,-0.7010894,-9.836678
39926306,0.004301259,-0.0009014783,-0.0004893295,-0.3145963,-0.7044215,-9.840919
39945896,0.004529065,-0.001217566,-0.000716874,-0.3159502,-0.7016838,-9.835846
39965985,0.004550309,-0.001392988,-0.0007291724,-0.3259459,-0.6960281,-9.836808
39985898,0.004171242,-0.001257843,-0.0006194519,-0.3270783,-0.7020531,-9.841173
40005950,0.004078466,-0.001368873,-0.0003472836,-0.3235497,-0.7041651,-9.829218
40026554,0.00406311,-0.001055217,-0.0001420555,-0.3091699,-0.7090415,-9.833831
40045950,0.003956741,-0.0006508838,-0.0001306471,-0.3082537,-0.7086755,-9.832029
40065919,0.003650608,-0.00070592,-9.795302e-05,-0.3173216,-0.7029146,-9.833776
40085951,0.003608362,-0.001258504,-8.014867e-05,-0.3237316,-0.7006837,-9.843657
40105916,0.003583868,-0.00173019,-4.9286e-05,-0.3255476,-0.7034184,-9.846824
40126303,0.003224389,-0.001734343,0.0002170527,-0.3205167,-0.6995755,-9.838174
40145925,0.003045107,-0.001842898,0.0003897948,-0.314623,-0.7093162,-9.833378
40165940,0.002906386,-0.001752708,0.000352338,-0.3208959,-0.718314,-9.839112
40186104,0.002791048,-0.001679458,0.0003348009,-0.3243459,-0.7095399,-9.851982
40205951,0.002911787,-0.001869365,0.0001726962,-0.3293466,-0.7024065,-9.848698
40226326,0.003184223,-0.002159819,6.711487e-05,-0.3216707,-0.7070984,-9.849622
40245872,0.00369518,-0.002829468,-0.0001317471,-0.3182024,-0.7074799,-9.843207
40265915,0.004263538,-0.003704632,-0.0004056502,-0.3236808,-0.7061569,-9.833786
40285884,0.004679432,-0.004034177,-0.0005745799,-0.3280074,-0.7029328,-9.835923
40305971,0.004368523,-0.003427928,-0.0005117764,-0.3283107,-0.707295,-9.84772
40326365,0.004029228,-0.00260952,-0.0003899897,-0.3252204,-0.7114047,-9.839862
40346081,0.003920559,-0.001801587,-0.0002803262,-0.3250328,-0.7109799,-9.833065
40365930,0.003711015,-0.001315883,-8.485619e-05,-0.3166146,-0.7101885,-9.833353
40385898,0.00339766,-0.00089547,0.0001488183,-0.3149799,-0.7124947,-9.843161
40405956,0.003469948,-0.0009792824,0.0004146965,-0.324144,-0.7159502,-9.843549
40426315,0.004026792,-0.001410274,0.0004503465,-0.3170776,-0.7132092,-9.840342
40445909,0.004504921,-0.001971294,0.0003656263,-0.3113942,-0.704596,-9.837471
40465970,0.004733094,-0.002643808,0.0003972415,-0.3046911,-0.7000259,-9.828754
40485947,0.005017576,-0.002919014,0.0003958029,-0.2991892,-0.7048245,-9.825035
40506140,0.005162581,-0.003116775,9.040004e-05,-0.3115337,-0.7122742,-9.838495
40526348,0.005037188,-0.003192206,-0.0001736844,-0.3269795,-0.7118092,-9.846346
40545957,0.004794259,-0.003024663,-0.0003278636,-0.3182063,-0.7141877,-9.838111
40565934,0.004828624,-0.002664086,-0.0005250685,-0.3094167,-0.7112966,-9.834088
40585892,0.004713012,-0.002521997,-0.0005862448,-0.3093083,-0.7088323,-9.845938
40605961,0.004220871,-0.002156847,-0.0005253994,-0.3112103,-0.714074,-9.843091
40626350,0.003805664,-0.001731701,-0.0005427826,-0.3134752,-0.7146685,-9.847522
40645877,0.003798855,-0.001815873,-0.0005735242,-0.3137719,-0.7041596,-9.844744
40666207,0.003819209,-0.001883308,-0.0006001552,-0.3263018,-0.7049075,-9.846604
40685964,0.00375378,-0.001707791,-0.0005275282,-0.3251412,-0.7088622,-9.838424
40705935,0.003644894,-0.00151576,-0.0002664982,-0.3185693,-0.7122934,-9.828893
40726303,0.003405269,-0.001334629,-0.000148418,-0.3242128,-0.7074419,-9.836977
40745906,0.003284936,-0.001754354,5.183485e-05,-0.3266555,-0.7043381,-9.847236
40765909,0.003262419,-0.001326663,0.0001501374,-0.3234811,-0.7031068,-9.842812
40785941,0.003218086,-0.001053202,0.0002516226,-0.3267812,-0.7053751,-9.839967
40805929,0.00306683,-0.00118431,0.0002317121,-0.3290724,-0.7109634,-9.83911
40826476,0.003212862,-0.001641904,0.0001348522,-0.3337197,-0.7069808,-9.848823
40845912,0.003654298,-0.002085219,0.0002333249,-0.326221,-0.7029647,-9.851536
40865933,0.003952688,-0.002583266,0.0003397331,-0.318987,-0.706619,-9.847461
40885890,0.003943411,-0.002818686,0.0004136687,-0.3151617,-0.706628,-9.834652
40905887,0.003854573,-0.002903457,0.0004809751,-0.310057,-0.7086114,-9.832013
40926298,0.003889734,-0.002730553,0.0004298372,-0.3201314,-0.7070901,-9.836014
40946002,0.004084834,-0.00245266,0.0002545098,-0.3221622,-0.7109325,-9.84415
40965926,0.004139672,-0.001741852,-8.432669e-05,-0.3235988,-0.7107835,-9.84293
40986201,0.00428473,-0.001536393,-0.000506481,-0.3216897,-0.706252,-9.842821
41005953,0.004368433,-0.001309236,-0.0005189882,-0.3130668,-0.709063,-9.848433
41026297,0.004140017,-0.001131231,-0.0002980538,-0.3150324,-0.7082933,-9.838737
41045873,0.003991476,-0.001592163,-0.0001795922,-0.3284094,-0.7066008,-9.839194
41065979,0.004015967,-0.001905489,1.298595e-05,-0.327494,-0.7128515,-9.836801
41085926,0.00405007,-0.002035181,5.240411e-05,-0.3187941,-0.7139199,-9.847689
41105939,0.004260976,-0.002262272,0.0002138692,-0.3143469,-0.7137292,-9.851249
41126307,0.004050127,-0.002056286,0.0004657849,-0.3239505,-0.7128413,-9.85205
41146107,0.003633099,-0.002449709,0.0004456808,-0.3332812,-0.7095112,-9.840997
41165966,0.003385544,-0.002704204,0.0003740486,-0.3365049,-0.7079307,-9.836945
41185935,0.003235832,-0.002781247,0.0002429315,-0.3299128,-0.7001801,-9.840755
41205940,0.003551879,-0.002944641,-2.257234e-05,-0.3339626,-0.6986213,-9.835486
41226322,0.004083288,-0.002894736,-0.0002319616,-0.3315462,-0.6958245,-9.835361
41245874,0.004110697,-0.00240211,-0.0003006366,-0.3278785,-0.7026505,-9.834516
41265979,0.003963515,-0.001553239,-0.000306021,-0.325132,-0.7093164,-9.841697
41285895,0.004070503,-0.001034543,-0.0002958341,-0.322347,-0.7142192,-9.854501
41306207,0.004088793,-0.0008320673,-0.0003275311,-0.3194425,-0.7123762,-9.849523
41326321,0.004327011,-0.001014464,-0.0002838871,-0.3167976,-0.7045571,-9.844139
41345886,0.004754489,-0.001804019,-9.473951e-05,-0.3229358,-0.7063084,-9.841099
41365947,0.005026261,-0.002406398,-6.454784e-05,-0.3127331,-0.7134179,-9.843314
41385944,0.005137959,-0.002774785,9.957797e-05,-0.3152765,-0.7135589,-9.838705
41405939,0.004833245,-0.002835336,2.54897e-05,-0.3182309,-0.71016,-9.853317
41426319,0.004531107,-0.002924013,-1.108994e-05,-0.3300418,-0.7040725,-9.85418
41445879,0.004296149,-0.003025046,-7.17115e-05,-0.3306053,-0.702392,-9.851929
41466221,0.004259143,-0.003267164,-0.0001314325,-0.3269052,-0.7064645,-9.842097
41485959,0.004746964,-0.003750799,-1.009277e-06,-0.3188865,-0.7070648,-9.836854
41505960,0.004680858,-0.003516121,0.0003107122,-0.3192914,-0.7049369,-9.835291
41526297,0.005020746,-0.002601026,0.0004614515,-0.320943,-0.7065133,-9.838844
41545978,0.00493415,-0.001993647,0.0005647417,-0.323954,-0.7078216,-9.83647
41565964,0.004473365,-0.001558562,0.000535686,-0.3189692,-0.7133532,-9.840321
41585944,0.004356042,-0.001516495,0.000332274,-0.3228563,-0.7149453,-9.84932
41605943,0.004320937,-0.001581846,1.869035e-05,-0.3269996,-0.7047769,-9.848088
41626546,0.004041528,-0.001727121,-0.0002578587,-0.3328944,-0.7031155,-9.84994
41645914,0.004000828,-0.002038065,-0.0004907453,-0.3291461,-0.7104135,-9.856387
41665946,0.00418248,-0.001647985,-0.0004295826,-0.3280553,-0.7157952,-9.858443
41685898,0.004374507,-0.001878151,-8.738709e-05,-0.3273964,-0.7152707,-9.86095
41705908,0.004337954,-0.002310858,0.0001922463,-0.3201317,-0.7070388,-9.85868
41726300,0.004115674,-0.00210789,0.0005268949,-0.3170576,-0.7076182,-9.84199
41745894,0.00400651,-0.001491181,0.0006710447,-0.3168524,-0.7056765,-9.841532
41765941,0.003639258,-0.001172718,0.0005706406,-0.3163935,-0.7115147,-9.838091
41786198,0.003307234,-0.001037941,0.0004157391,-0.3171852,-0.7109887,-9.836642
41805926,0.003248407,-0.001150074,0.0002448108,-0.3255958,-0.7109506,-9.841977
41826329,0.003553416,-0.001300688,0.0003900999,-0.3246475,-0.7092608,-9.842516
41845906,0.003813485,-0.001742617,0.0004675387,-0.317789,-0.7033678,-9.83676
41865957,0.003781399,-0.002212232,0.0003630886,-0.3152051,-0.7054644,-9.838914
41885891,0.003644892,-0.002330917,0.0002613439,-0.3149666,-0.7115892,-9.840665
41905970,0.003812509,-0.003016304,0.0003226594,-0.3172757,-0.7107782,-9.836346
41926361,0.003904924,-0.003608168,0.000255901,-0.3186565,-0.707557,-9.840974
41946148,0.003865682,-0.003366241,0.0002007771,-0.3197044,-0.7103156,-9.843762
41965929,0.003907201,-0.003300203,0.0001512365,-0.3141475,-0.7120196,-9.831866
41985933,0.004202685,-0.003441729,0.0001122478,-0.3100396,-0.7081854,-9.840166
42005940,0.004583829,-0.003217388,-6.478899e-05,-0.3063222,-0.7131469,-9.830266
42026302,0.004564699,-0.00301897,-0.0001539418,-0.320881,-0.7042952,-9.835875
42045878,0.004468561,-0.002381122,-0.0002639659,-0.3225269,-0.7076642,-9.835707
42065959,0.004633958,-0.002209595,-0.0004802713,-0.3124342,-0.7115328,-9.839311
42085966,0.00463921,-0.002114439,-0.000462132,-0.3110856,-0.7060745,-9.839711
42106173,0.004688127,-0.002194101,-0.0002712908,-0.3174873,-0.702059,-9.838157
42126334,0.004576196,-0.002369147,-5.497166e-05,-0.319406,-0.7061307,-9.84746
42145921,0.004240392,-0.00227345,0.0002731995,-0.3228458,-0.7097445,-9.858367
42165947,0.004034598,-0.001964074,0.0004627474,-0.3229862,-0.7086891,-9.844357
42185884,0.003949101,-0.001142319,0.000482223,-0.3161204,-0.7036701,-9.8442
42205925,0.003826265,-0.0004418236,0.0004230331,-0.314408,-0.7070041,-9.846281
42226397,0.003638991,-0.0001599693,0.0001124191,-0.3251667,-0.7096946,-9.842066
42245876,0.003891501,-0.0005316993,-0.0001432017,-0.31785,-0.7162018,-9.845285
42266242,0.004051481,-0.001112626,-0.0002507111,-0.3173321,-0.7163485,-9.835882
42285956,0.00407881,-0.001761299,-0.0002744291,-0.323655,-0.7087108,-9.824774
42305943,0.003997878,-0.0018,-0.0001849113,-0.3205955,-0.7045882,-9.821287
42326306,0.004237839,-0.001528485,-0.0001410811,-0.3247836,-0.7041105,-9.831527
42345881,0.004105559,-0.001231202,-0.0001797455,-0.3199041,-0.7009378,-9.845434
42366019,0.0038787,-0.001278844,-0.0002192641,-0.3203242,-0.7068675,-9.842188
42385953,0.003672312,-0.001268222,-9.325125e-05,-0.3184188,-0.7108494,-9.837434
42405952,0.003426598,-0.001182127,-5.319651e-05,-0.3192434,-0.7062038,-9.840548
42426468,0.003378368,-0.001124903,-8.090122e-06,-0.3198177,-0.7058917,-9.834326
42445894,0.003535181,-0.001320421,0.0001316732,-0.3196553,-0.7076762,-9.826962
42466006,0.003882245,-0.001699176,0.000227988,-0.3160028,-0.7110268,-9.819835
42485902,0.003917827,-0.00199227,0.0002636291,-0.3100931,-0.7167236,-9.821067
42505976,0.003442364,-0.002319067,0.0002071241,-0.3211156,-0.7079527,-9.842509
42526351,0.003334198,-0.002484877,0.0001798908,-0.3226133,-0.706211,-9.854758
42545947,0.003686856,-0.002305253,0.0002163228,-0.3236064,-0.7068241,-9.846123
42565980,0.004066725,-0.002336841,0.0002735459,-0.3177057,-0.7062694,-9.832765
42586085,0.004245244,-0.002143475,0.0002737564,-0.3181022,-0.7086443,-9.827299
42605944,0.004137474,-0.001611825,0.0003843239,-0.3232256,-0.7133719,-9.834545
42626355,0.003860026,-0.001397193,0.0003571635,-0.3240926,-0.7034813,-9.842772
42645896,0.003828585,-0.001185712,0.0003558021,-0.3259261,-0.7063512,-9.850124
42665920,0.00408342,-0.001259883,0.0003674983,-0.3215863,-0.7119433,-9.837955
42685905,0.004291284,-0.001201698,0.0004922575,-0.3105443,-0.7139088,-9.836273
42705896,0.00448729,-0.001488377,0.000360148,-0.3162254,-0.7119234,-9.843894
42726324,0.004556576,-0.001473676,0.0003639948,-0.3145556,-0.7134047,-9.84313
42746188,0.004427483,-0.001495359,0.0003408874,-0.3135709,-0.7109626,-9.844328
42765948,0.004206236,-0.0015514,0.0003916309,-0.3121489,-0.70532,-9.83331
42785889,0.0038833,-0.001232576,0.0004500902,-0.3201623,-0.7049403,-9.83359
42805971,0.003946296,-0.0008391335,0.0003360201,-0.3180474,-0.71076,-9.841427
42826328,0.003743866,-0.0004685828,0.0001949345,-0.3155928,-0.7119848,-9.841518
42845946,0.003842326,-0.0001312714,7.781132e-05,-0.3185512,-0.7143151,-9.839874
42865932,0.004143379,0.0002723726,-0.0001009831,-0.3194015,-0.7154747,-9.83875
42885938,0.003909884,0.0002201887,-5.91565e-05,-0.3136649,-0.7112954,-9.849025
42906239,0.003649262,-0.0002066786,-3.227468e-05,-0.3153746,-0.7053838,-9.847668
42926261,0.003411089,-0.0009748298,-9.446928e-05,-0.3113366,-0.7073911,-9.842031
42945903,0.003236977,-0.001294495,-5.006481e-05,-0.3091736,-0.7089984,-9.84427
42965937,0.003324501,-0.001287672,2.110213e-05,-0.3173567,-0.703157,-9.847967
42985920,0.003551843,-0.001084639,-5.933928e-06,-0.3200049,-0.7090892,-9.840986
43005921,0.003653105,-0.000815641,-0.0001911283,-0.3088339,-0.7023743,-9.833293
43026292,0.003877262,-0.0007232555,-0.0001021148,-0.3187034,-0.7014536,-9.82575
43045932,0.003864911,-0.0006091965,-6.210372e-05,-0.3192611,-0.7060594,-9.815611
43066132,0.003911945,-0.000889531,-0.0001364687,-0.3194843,-0.7085532,-9.818438
43085950,0.003904954,-0.001260886,-5.628159e-05,-0.3182529,-0.7094752,-9.836839
43105960,0.003882824,-0.00118107,0.0001331859,-0.3218361,-0.7101907,-9.851525
43126297,0.0036447,-0.001244354,0.0004523442,-0.312889,-0.71556,-9.839228
43145881,0.003298985,-0.001593052,0.0007258024,-0.3180815,-0.7107098,-9.839016
43165971,0.003042253,-0.001708151,0.0007817845,-0.3259699,-0.7065043,-9.842601
43185882,0.003254135,-0.001579327,0.0007078973,-0.3335448,-0.708708,-9.838792
43205899,0.003430094,-0.001403297,0.00070766,-0.3275236,-0.7093889,-9.838545
43226523,0.00350357,-0.0010419,0.0005959867,-0.3187111,-0.7092171,-9.839563
43245956,0.00332223,-0.001272084,0.0005506402,-0.3141246,-0.6984863,-9.835277
43265992,0.003131148,-0.001293828,0.0004995164,-0.3127009,-0.6935366,-9.841728
43285977,0.002809856,-0.0006192919,0.000462015,-0.3180517,-0.7005799,-9.849579
43305964,0.002583053,-0.0002794596,0.0003821688,-0.3197343,-0.700727,-9.849509
43326338,0.00260234,0.0001673502,0.0002749185,-0.312158,-0.7132578,-9.843105
43345972,0.003172613,-8.498175e-06,0.0001408714,-0.3227504,-0.7088881,-9.842933
43365936,0.003499693,-0.0003094797,-0.0001156132,-0.3193606,-0.7102158,-9.849304
43386192,0.003899579,-0.0003411879,-0.0001387885,-0.3117246,-0.7054992,-9.849208
43405999,0.003982683,-0.0002883259,-4.82113e-05,-0.3094031,-0.7105154,-9.84162
43426330,0.003703044,-3.077608e-05,5.664975e-05,-0.319381,-0.7094738,-9.839419
43445900,0.004081965,-0.0002890624,0.000105145,-0.3171788,-0.7046363,-9.842718
43465933,0.004105308,-0.0006613731,4.931942e-05,-0.315368,-0.697603,-9.853466
43485862,0.004422338,-0.001246184,-2.702506e-05,-0.3228826,-0.7072555,-9.850103
43505910,0.004696784,-0.001354121,2.560523e-06,-0.3232844,-0.7112204,-9.830571
43526333,0.004543214,-0.001164926,-0.0001080394,-0.3242393,-0.7082356,-9.826637
43546106,0.003876791,-0.0009469736,7.529229e-05,-0.3166172,-0.7065189,-9.832704
43565994,0.003635731,-0.00114169,0.0001613125,-0.3153487,-0.7037029,-9.840709
43585936,0.003452318,-0.001339086,0.0003790816,-0.3137697,-0.6959152,-9.839569
43605964,0.003331403,-0.001204063,0.0005200007,-0.3219508,-0.6923739,-9.849741
43626349,0.003340452,-0.0006769856,0.0005434344,-0.3276793,-0.6943301,-9.842505
43645877,0.003576386,-0.0001405952,0.000524393,-0.3291095,-0.7001039,-9.840526
43665966,0.003945027,-0.0001003453,0.0004643883,-0.3126817,-0.7094368,-9.8355
43685882,0.004494162,-0.0003899549,0.0002086038,-0.3219376,-0.7092655,-9.833953
43706166,0.004920552,-0.0009603724,3.771791e-05,-0.3289061,-0.7077439,-9.834237
43726345,0.005299575,-0.001787296,1.670622e-05,-0.3262237,-0.7022184,-9.832381
43745922,0.005125691,-0.002003979,-2.000767e-05,-0.3255885,-0.6973701,-9.835702
43766003,0.004690122,-0.002116582,8.243427e-05,-0.3329166,-0.6977158,-9.836321
43785887,0.004273291,-0.00232138,0.0004152561,-0.3272707,-0.6976933,-9.839899
43805960,0.004310147,-0.002306801,0.0006144299,-0.328675,-0.7001789,-9.854164
43826306,0.00436414,-0.001951791,0.0004072553,-0.3313612,-0.7063617,-9.84259
43845924,0.004052924,-0.001384281,0.0001488355,-0.3285581,-0.7045249,-9.841167
43866144,0.003476014,-0.001266173,0.0003303897,-0.3209014,-0.7085714,-9.837909
43885894,0.003348338,-0.001586966,0.000359321,-0.3117125,-0.7021385,-9.838504
43905945,0.003222857,-0.002055543,0.0004722848,-0.3082268,-0.7037855,-9.839845
43926318,0.003037276,-0.002006366,0.0004434601,-0.3125605,-0.7079526,-9.838831
43945939,0.002893521,-0.001624205,0.0002944843,-0.3096957,-0.7099287,-9.8346
43965962,0.00284744,-0.00135181,0.0002461859,-0.3158899,-0.7038394,-9.828424
43985949,0.002869749,-0.001321256,0.0001456759,-0.3201286,-0.7066346,-9.828249
44005910,0.003075681,-0.001347153,0.0001164382,-0.3172124,-0.7131107,-9.838474
44026475,0.003267323,-0.001386379,0.0002455481,-0.3168052,-0.7094585,-9.849761
44045857,0.003360361,-0.0008327966,0.0003979557,-0.3195722,-0.7074542,-9.847447
44065979,0.003548959,-0.000659506,0.0003089801,-0.3168406,-0.7043409,-9.844493
44085925,0.0039628,-0.0005913115,0.0002024624,-0.3118759,-0.7115771,-9.837602
44105907,0.004272914,-0.0005843458,9.940261e-05,-0.3222546,-0.7058303,-9.838702
44126337,0.00431868,-0.001004962,1.655102e-05,-0.3247689,-0.7018972,-9.835066
44145951,0.004466259,-0.001364956,-0.000166431,-0.3272737,-0.7028677,-9.830776
44165917,0.004469161,-0.001535793,-0.0002566001,-0.317176,-0.704902,-9.841708
44186107,0.004318629,-0.001376001,-0.0002584507,-0.3119805,-0.7037966,-9.843817
44205968,0.003792919,-0.0008624594,-0.0001419023,-0.3082064,-0.7077351,-9.849307
44226307,0.0034337,-0.0003166132,0.000182407,-0.3125586,-0.7095399,-9.84117
44245912,0.003376753,-0.0005538265,0.0004307054,-0.3265946,-0.7032987,-9.848987
44265917,0.003149444,-0.0006287135,0.0005128187,-0.3191804,-0.7017081,-9.847789
44285914,0.002804866,-0.0008045618,0.0001636814,-0.324371,-0.704798,-9.838373
44305955,0.002787284,-0.001030524,-3.372989e-07,-0.3251219,-0.7071173,-9.833176
44326311,0.003109827,-0.001184867,-8.450638e-05,-0.3200835,-0.7053168,-9.82821
44346202,0.003682694,-0.001609321,-2.625382e-05,-0.3176445,-0.7037981,-9.824198
44365982,0.004140245,-0.002226654,0.000117379,-0.3227192,-0.7117608,-9.826348
44385891,0.004466985,-0.002283417,0.0002129363,-0.3200848,-0.7088869,-9.835073
44405967,0.004551421,-0.002103574,0.0002238237,-0.3301439,-0.7037045,-9.839669
44426317,0.004592312,-0.00200582,0.0003424839,-0.3278479,-0.7057766,-9.845393
44445947,0.004837275,-0.001923099,0.0003731204,-0.3252573,-0.7008564,-9.83983
44465934,0.005001589,-0.001541101,0.0003896641,-0.3216594,-0.7006311,-9.840203
44485953,0.004633361,-0.001101266,0.0002561641,-0.3168453,-0.7053207,-9.852301
44506181,0.004102948,-0.0005660221,0.0003149585,-0.321194,-0.710573,-9.842944
44526262,0.003929126,-0.0005085815,0.0002885818,-0.3215464,-0.7049098,-9.842972
44545890,0.004065788,-0.001090575,0.0003372927,-0.3259565,-0.6964623,-9.844953
44565963,0.00438237,-0.001619544,0.0004223262,-0.3265654,-0.7027709,-9.838602
44585956,0.004658428,-0.001989305,0.0004486951,-0.3197168,-0.7042452,-9.845951
44605939,0.004610064,-0.001783385,0.0003676884,-0.3231177,-0.7037467,-9.848441
44626341,0.004681332,-0.001618485,0.0003043438,-0.3197877,-0.7020765,-9.849298
44645940,0.004315526,-0.001532483,0.0004122098,-0.3176363,-0.6976645,-9.84951
44666133,0.004191983,-0.001744984,0.0002741644,-0.3148887,-0.7044985,-9.837371
44685897,0.004180588,-0.001981671,0.0001268953,-0.3178163,-0.702484,-9.827772
44705892,0.004302801,-0.002163551,5.001242e-05,-0.3140919,-0.7074924,-9.827534
44726300,0.004671495,-0.003059526,5.000708e-05,-0.3227543,-0.7080451,-9.827
44745878,0.004696989,-0.003216987,5.071444e-05,-0.3253093,-0.7033398,-9.83532
44765986,0.004856005,-0.003553706,-3.621069e-06,-0.3224167,-0.6933351,-9.83972
44785954,0.004845224,-0.00326212,-0.000186951,-0.3177309,-0.6942197,-9.84591
44805936,0.004659291,-0.002475173,-0.0002324072,-0.3154805,-0.7006205,-9.844915
44826499,0.004572349,-0.001990188,-0.0003893253,-0.3195945,-0.7023789,-9.839947
44845939,0.004484401,-0.001844732,-0.0004668397,-0.3318387,-0.6974292,-9.83741
44865982,0.004224601,-0.001530179,-0.0002510881,-0.3213168,-0.6971277,-9.831569
44885968,0.003861368,-0.001157393,-6.244538e-05,-0.3204902,-0.6960738,-9.835972
44905904,0.003797324,-0.001394261,-7.650683e-05,-0.3216406,-0.7015715,-9.83098
44926331,0.003594021,-0.001462366,-0.0002041032,-0.3214875,-0.7003865,-9.833083
44945894,0.003454319,-0.001299256,-0.0003038291,-0.3296565,-0.6983382,-9.83408
44965926,0.003452019,-0.0008456133,-0.000339625,-0.3287662,-0.6960436,-9.841772
44986201,0.003776866,-0.0006465374,-0.0003350963,-0.3185827,-0.6961374,-9.844213
45005940,0.003728268,-0.0007610662,-0.0001841617,-0.3136586,-0.6988993,-9.845598
45026378,0.003555545,-0.0006481232,-0.0002924472,-0.3122307,-0.6997662,-9.834188
45045880,0.003476192,-0.0007970601,-0.0002125507,-0.3201041,-0.7006395,-9.833469
45065992,0.003381117,-0.0007495355,-8.437035e-05,-0.3253151,-0.7001061,-9.844136
45085943,0.003372499,-0.0008933579,8.392039e-05,-0.3124017,-0.6908045,-9.846775
45105912,0.003592128,-0.0007723334,0.0002036728,-0.3182397,-0.693016,-9.843728
45126300,0.00378943,-0.0005561386,0.0001881349,-0.3202201,-0.7032787,-9.855755
45146179,0.004063806,-0.0003880367,0.0003243895,-0.3249149,-0.7087091,-9.855567
45165964,0.004347176,-0.0001041249,0.00049041,-0.3273981,-0.7086645,-9.847106
45185886,0.004385746,-5.254112e-05,0.0004195886,-0.3267284,-0.7026516,-9.836697
45205979,0.004600791,-0.0005771411,0.000375797,-0.3315401,-0.7029027,-9.829597
45226316,0.004996141,-0.001207365,0.0003242519,-0.3307265,-0.706758,-9.826849
45245879,0.005255345,-0.001430001,0.0002354457,-0.3272289,-0.7144358,-9.834717
45265980,0.005380911,-0.001537184,0.0001785637,-0.3171233,-0.7099569,-9.836665
45285953,0.005121502,-0.001587669,0.0001916779,-0.3053869,-0.7059447,-9.847301
45306124,0.004874319,-0.001606061,0.0004494005,-0.3093254,-0.7096658,-9.849834
45326325,0.004698175,-0.001853051,0.0006536721,-0.3088333,-0.711651,-9.83424
45345885,0.004597576,-0.001942603,0.0005086916,-0.3170105,-0.711548,-9.833595
45365973,0.004790272,-0.002169047,0.0002993003,-0.321355,-0.7046203,-9.842113
45385940,0.004821075,-0.002448714,5.635135e-05,-0.3224173,-0.6890943,-9.836347
45405906,0.004606524,-0.00286456,-9.50922e-05,-0.3184377,-0.6889477,-9.838224
45426315,0.004327053,-0.003373419,-0.0001634432,-0.3165287,-0.7002278,-9.83303
45445892,0.00384257,-0.003097018,-0.0002613392,-0.3089592,-0.7071475,-9.830268
45466191,0.003414701,-0.002586325,1.139472e-05,-0.3088923,-0.701932,-9.822453
45485897,0.003459607,-0.002276213,0.0001122703,-0.3105693,-0.7023209,-9.828156
45505909,0.00351049,-0.002352472,0.0001468629,-0.3090749,-0.7016941,-9.832926
45526331,0.003497046,-0.002098289,0.0002365583,-0.3071183,-0.7000086,-9.825234
45545888,0.003754772,-0.002089841,0.0003824224,-0.3086609,-0.6962652,-9.833117
45565959,0.004146935,-0.002815054,0.0005122537,-0.3154056,-0.7053214,-9.839731
45585956,0.004483919,-0.003399619,0.0006928732,-0.3169571,-0.711052,-9.833725
45605948,0.004318784,-0.003330674,0.0005884867,-0.3159713,-0.7060039,-9.832825
45626572,0.004035535,-0.003009885,0.0004231802,-0.310522,-0.7027035,-9.8332
45645962,0.003620715,-0.002915133,0.0003127494,-0.3181729,-0.7045972,-9.832259
45665998,0.003093883,-0.002199838,0.0002459096,-0.3196723,-0.705493,-9.833993
45685884,0.002854324,-0.001504833,0.0001252869,-0.3233527,-0.7012632,-9.832175
45705907,0.002690945,-0.0009104692,0.0001479434,-0.3179627,-0.7000242,-9.833599
45726319,0.002863502,-0.0004160338,0.0003004447,-0.3201046,-0.7064351,-9.836143
45745919,0.003341326,0.0001424878,0.0002715002,-0.3189657,-0.7108388,-9.827127
45765917,0.003315922,0.0002470844,8.710386e-05,-0.3161663,-0.710659,-9.836484
45786100,0.00376148,-0.0003582324,0.0001075648,-0.3162124,-0.7042166,-9.827603
45805965,0.004435327,-0.0008960143,0.0002846117,-0.3281799,-0.6993746,-9.833068
45826345,0.005080379,-0.001206104,0.0002499406,-0.326956,-0.7038739,-9.83215
45845902,0.005369473,-0.001101763,0.0002336242,-0.3162096,-0.7066585,-9.835424
45866006,0.005593953,-0.001300675,5.097162e-05,-0.3154168,-0.7051868,-9.841011
45885957,0.005664115,-0.001985697,-5.585796e-05,-0.3208455,-0.7098556,-9.827127
45905923,0.005578145,-0.002317296,3.984024e-05,-0.3236216,-0.7077807,-9.836955
45926320,0.005260018,-0.002726079,4.558673e-06,-0.3114242,-0.7029704,-9.843586
45946116,0.00504895,-0.002901389,1.212133e-06,-0.3021812,-0.7046909,-9.835069
45965930,0.004974579,-0.002943048,-3.018844e-06,-0.310006,-0.7030247,-9.84308
45985887,0.004797269,-0.002785966,4.821359e-05,-0.3217593,-0.7122738,-9.845205
46005911,0.004483071,-0.002376641,6.205552e-05,-0.3219156,-0.7116182,-9.847009
46026307,0.003945193,-0.00193656,0.0001576857,-0.3183519,-0.7033875,-9.851011
46045875,0.00365957,-0.001853539,0.0002994236,-0.3146478,-0.6970176,-9.848254
46065977,0.003447121,-0.001593741,0.0003589063,-0.3156128,-0.7012674,-9.836942
46085928,0.00341732,-0.001737465,0.0003751933,-0.3179731,-0.6989189,-9.836122
46106227,0.00328867,-0.001574978,0.000374593,-0.324577,-0.7054395,-9.83154
46126354,0.003114781,-0.001420116,0.0003403267,-0.326777,-0.7100742,-9.838533
46145883,0.003180809,-0.001480206,0.0002750003,-0.3212179,-0.7128916,-9.833213
46165956,0.003321018,-0.001350929,0.0001561559,-0.3218542,-0.7086372,-9.832822
46185946,0.003440898,-0.000866188,7.325143e-05,-0.3199621,-0.7072071,-9.826668
46205909,0.003607676,-0.0009311747,0.0002219541,-0.3235685,-0.7086949,-9.829453
46226321,0.003577837,-0.001444296,0.000307049,-0.3231529,-0.7073174,-9.837875
46245936,0.00356,-0.001738386,0.0004472393,-0.328879,-0.7088665,-9.851171
46266199,0.003573297,-0.001856057,0.0004489676,-0.3197239,-0.699549,-9.85653
46285921,0.003396339,-0.001617364,0.0004969973,-0.3177912,-0.6964988,-9.849802
46305904,0.003330802,-0.001269446,0.0004030367,-0.3260225,-0.6985472,-9.849122
46326338,0.003331361,-0.001107724,0.0003613621,-0.3358909,-0.7013834,-9.839353
46345890,0.00337134,-0.001108487,0.0004490998,-0.3396972,-0.7032458,-9.839268
46365952,0.003426306,-0.0007844612,0.0003718746,-0.3311145,-0.6981891,-9.835869
46385884,0.003361464,-0.0003354186,0.0003039189,-0.3300591,-0.6975329,-9.838923
46405959,0.003573295,-4.364154e-05,0.0002828345,-0.3195589,-0.6908906,-9.833017
46426518,0.004125237,-0.0001135388,0.000184814,-0.3148644,-0.6997133,-9.828354
46445912,0.004808409,-0.0004249567,-1.322843e-05,-0.3211753,-0.7053621,-9.83337
46466020,0.005114733,-0.0005816193,-0.0001816281,-0.313675,-0.7057149,-9.844372
46485961,0.004794155,-0.0005622209,-0.0001574731,-0.3146566,-0.7075762,-9.845735
46505908,0.004453859,-0.0009885661,-0.0002067789,-0.3104729,-0.7044448,-9.840138
46526308,0.004102587,-0.001425986,-2.931434e-05,-0.3102644,-0.7101447,-9.838231
46545954,0.003925037,-0.00174318,0.0002271039,-0.3169269,-0.7084752,-9.839723
46565910,0.003480841,-0.001964521,0.0003417871,-0.3271237,-0.7082211,-9.838334
46586174,0.003298877,-0.001517129,0.0002771144,-0.3257603,-0.7078115,-9.838238
46605912,0.003314366,-0.001023907,0.0003737734,-0.332712,-0.7065145,-9.84454
46626366,0.003502925,-0.001177639,0.000553112,-0.3292914,-0.6943675,-9.84029
46645951,0.003243464,-0.001078461,0.0006205479,-0.3169365,-0.6941982,-9.832193
46665985,0.002896905,-0.0006630524,0.0005112925,-0.324131,-0.6985792,-9.843209
46685930,0.003035017,-0.0009178539,0.0004018216,-0.3295964,-0.7031927,-9.841936
46705950,0.003076875,-0.001027133,0.000294159,-0.3245564,-0.7109249,-9.837444
46726348,0.003415097,-0.00156089,0.0003332524,-0.3281142,-0.7089853,-9.832799
46746091,0.003770234,-0.002204601,0.0004018644,-0.3186357,-0.7092959,-9.825233
46765934,0.003712778,-0.002423484,0.0004617728,-0.3250111,-0.7115699,-9.825315
46785926,0.003662413,-0.00217881,0.0003978734,-0.3270542,-0.7077932,-9.850706
46805921,0.003940551,-0.001657077,0.0002442163,-0.3197786,-0.7065238,-9.850944
46826315,0.004142885,-0.001109303,-9.680355e-05,-0.3163629,-0.710274,-9.832458
46845918,0.004064362,-0.0002864937,-0.0002814496,-0.3123572,-0.7128526,-9.828253
46865973,0.004016904,5.564368e-05,-0.000324522,-0.3146893,-0.7054673,-9.842726
46885931,0.004039993,-0.0003532488,-0.0003071896,-0.3222373,-0.7031938,-9.852377
46906136,0.00414999,-0.001454755,-0.0003872069,-0.3332385,-0.7041094,-9.849694
46926286,0.004293176,-0.002125822,-0.0001802684,-0.3254105,-0.7145489,-9.851288
46945945,0.004534882,-0.001927471,-8.280702e-05,-0.3182973,-0.7121238,-9.839581
46966005,0.004695205,-0.002243022,1.551833e-06,-0.3154661,-0.7025807,-9.824716
46985885,0.004664886,-0.002228177,4.440094e-05,-0.3094805,-0.6977848,-9.82114
47005946,0.004610367,-0.002121006,1.344967e-05,-0.3183443,-0.6895485,-9.834475
47026310,0.004577646,-0.001963431,-5.90302e-05,-0.3233935,-0.7001805,-9.841723
47045889,0.004338853,-0.002139583,-9.05741e-05,-0.3189793,-0.7017642,-9.847316
47066205,0.004081391,-0.002176122,5.385329e-05,-0.3154102,-0.7000984,-9.847829
47085900,0.003670894,-0.002027407,0.0002738119,-0.3207992,-0.7028049,-9.832679
47105978,0.003410993,-0.002110171,0.0002310041,-0.3279039,-0.7039923,-9.827413
47126333,0.00357357,-0.001997437,7.20344e-05,-0.326063,-0.7031179,-9.841835
47145883,0.003872692,-0.001971232,-3.931886e-05,-0.3234145,-0.6981931,-9.848358
47165971,0.003660413,-0.001999893,-0.0001181154,-0.3168604,-0.699115,-9.845413
47185898,0.00333313,-0.002042405,5.548592e-05,-0.3197809,-0.7085467,-9.846359
47205885,0.003059013,-0.001781431,0.0003031485,-0.3189084,-0.7013489,-9.843058
47226516,0.003119781,-0.001433645,0.0003836369,-0.3196189,-0.7031614,-9.841975
47245943,0.003298992,-0.001270682,0.0004003985,-0.325792,-0.7046939,-9.846214
47266000,0.003318516,-0.001084824,0.0004248025,-0.3267991,-0.7032589,-9.842466
47285913,0.003080485,-0.001705782,0.0005311767,-0.3222998,-0.7034488,-9.835409
47305953,0.002842724,-0.002028608,0.000343011,-0.3245471,-0.7044595,-9.835629
47326343,0.003038752,-0.001977488,0.0001488547,-0.3197478,-0.7032223,-9.836695
47345882,0.003404916,-0.00152058,-5.145492e-05,-0.324215,-0.7013824,-9.846989
47365980,0.003714142,-0.001145092,-0.0001446887,-0.3201338,-0.7065007,-9.842813
47386044,0.004023196,-0.00123284,4.31568e-05,-0.3162042,-0.7042782,-9.832294
47405914,0.004220895,-0.001187013,0.0002200733,-0.3227097,-0.7065929,-9.838156
47426336,0.004438351,-0.001154975,0.0002791719,-0.3242009,-0.7078863,-9.838566
47445921,0.004349905,-0.001398964,0.0004409688,-0.3217238,-0.7071939,-9.850785
47465964,0.004370958,-0.002036735,0.0005774256,-0.3160032,-0.7126273,-9.838931
47485877,0.004497453,-0.001983588,0.0006138431,-0.3232205,-0.7062284,-9.846967
47505909,0.004053344,-0.001062791,0.0006249245,-0.3375284,-0.6930556,-9.850091
47526307,0.003611743,-0.0004328179,0.0004902471,-0.3389213,-0.6957092,-9.841151
47546215,0.003388385,-0.0001757198,0.0003187795,-0.3227507,-0.7040017,-9.843269
47566014,0.003739459,-0.0005932859,7.71827e-05,-0.3207912,-0.7077062,-9.850122
47585883,0.004153397,-0.0008636577,2.037509e-05,-0.3341703,-0.7046748,-9.846678
47605916,0.004340265,-0.001238051,-5.630571e-06,-0.3370104,-0.7086049,-9.839239
47626382,0.004265734,-0.001687797,9.311165e-05,-0.3287296,-0.708458,-9.844481
47645894,0.004368154,-0.0018997,0.0001448781,-0.3192826,-0.698501,-9.843178
47665982,0.004547302,-0.002001929,1.607326e-05,-0.3139304,-0.7043403,-9.836985
47685912,0.004900417,-0.002630706,-5.30806e-05,-0.3155453,-0.7040995,-9.832001
47706202,0.004846712,-0.003035905,4.642491e-05,-0.3208292,-0.7019204,-9.84007
47726312,0.004557337,-0.002912383,6.088603e-05,-0.317661,-0.6969638,-9.85629
47745923,0.004132343,-0.002107877,-5.767287e-05,-0.3186018,-0.7027665,-9.852249
47765961,0.004036848,-0.001527612,-0.0001502666,-0.3268725,-0.7085196,-9.855053
47785919,0.004305983,-0.001243631,-0.0002147678,-0.3291433,-0.7108811,-9.846236
47805940,0.004133717,-0.001199983,-0.0002275247,-0.3212675,-0.7034675,-9.839079
47826333,0.003828421,-0.001322552,-0.0001911536,-0.3231668,-0.7077186,-9.837068
47845903,0.003542071,-0.001308216,4.374697e-07,-0.3230343,-0.7100301,-9.832809
47866210,0.003515906,-0.0008800222,0.0002113881,-0.326298,-0.7054417,-9.846013
47885881,0.003493054,-0.0008938967,0.00025482,-0.3205353,-0.6960363,-9.846948
47905886,0.003878172,-0.001290808,0.0003155518,-0.3194368,-0.6984845,-9.836747
47926352,0.004039831,-0.001289954,0.0004542391,-0.3179021,-0.7088313,-9.832056
47945925,0.003895764,-0.001780259,0.0005860126,-0.3236622,-0.7061386,-9.832293
47965995,0.004073967,-0.002194603,0.0007151196,-0.3183929,-0.705242,-9.825831
47985908,0.003946305,-0.001946111,0.0007088593,-0.3177629,-0.7113442,-9.822616
48005984,0.003862591,-0.001633875,0.0004933634,-0.3253855,-0.7100314,-9.835894
48026509,0.003710742,-0.00126211,0.0003273669,-0.3242738,-0.7018937,-9.844429
48045880,0.003739937,-0.001159595,0.0002549797,-0.3246776,-0.7002637,-9.848154
48065981,0.004118615,-0.001550812,0.0002887404,-0.3153688,-0.6961641,-9.841947
48085889,0.00432023,-0.001927197,0.0003385532,-0.3191432,-0.6983431,-9.835863
48105966,0.004526636,-0.00232678,0.0004445672,-0.3186105,-0.7064431,-9.823875
48126304,0.00468993,-0.002706069,0.000345614,-0.3164086,-0.7069294,-9.823137
48145942,0.004903243,-0.002469681,9.676847e-05,-0.3170229,-0.6988064,-9.827752
48165918,0.004931611,-0.001778495,-9.207302e-05,-0.324333,-0.6945165,-9.841568
48186192,0.004997228,-0.001108696,-0.0001803223,-0.3259745,-0.6996624,-9.846186
48205937,0.004645877,-0.0009173907,-0.0003409363,-0.3218122,-0.699681,-9.831164
48226326,0.004545567,-0.0006754717,-0.0002206079,-0.3096532,-0.6990183,-9.826784
48245862,0.004453253,-0.0004075303,-8.656512e-05,-0.3173432,-0.6983457,-9.830674
48265916,0.004369274,-0.0003326785,0.0004211155,-0.3292448,-0.6978874,-9.836086
48285934,0.004385417,-0.000341163,0.0006411208,-0.3258661,-0.7034301,-9.836421
48305938,0.004376108,-0.0007590665,0.0004363614,-0.3156497,-0.7040212,-9.82976
48326282,0.004393033,-0.001509636,0.0003414367,-0.3155755,-0.7036189,-9.83157
48346185,0.004348239,-0.002159656,0.0002945192,-0.3171345,-0.6959789,-9.843843
48365918,0.004121827,-0.002293829,0.0003028231,-0.3162129,-0.701915,-9.854467
48385887,0.003922149,-0.002547319,0.000379436,-0.3183588,-0.7063084,-9.848968
48405915,0.004085822,-0.002879894,0.0005042641,-0.3202817,-0.7091342,-9.840321
48426298,0.004567745,-0.003148512,0.000281499,-0.3201452,-0.7033163,-9.839104
48445957,0.004928127,-0.00326411,0.0001288888,-0.3195966,-0.6897137,-9.838292
48465975,0.005430486,-0.003219678,0.0002122411,-0.3180989,-0.6875239,-9.841194
48485906,0.00584489,-0.003403757,0.0003925769,-0.3187665,-0.6993762,-9.839209
48506109,0.005856261,-0.003249945,0.0004567065,-0.3141482,-0.7063184,-9.837173
48526323,0.005949521,-0.00311211,0.0003871342,-0.3100578,-0.7042142,-9.832911
48545876,0.005807088,-0.00298868,0.0004191361,-0.3146676,-0.7031755,-9.828594
48565927,0.005598108,-0.002561011,0.0006619553,-0.3165322,-0.6943933,-9.835859
48586007,0.005368317,-0.002230082,0.0008076123,-0.3250402,-0.6918404,-9.844369
48605952,0.005543426,-0.00207323,0.0009721006,-0.3227504,-0.6988284,-9.84408
48626320,0.005297441,-0.001748901,0.0009493931,-0.3176588,-0.7043069,-9.843577
48645872,0.005268818,-0.001467479,0.0008395038,-0.325489,-0.7039732,-9.831153
48666191,0.005211738,-0.00111812,0.0007525865,-0.3252373,-0.6912692,-9.828528
48685888,0.004883581,-0.0008531198,0.0005994704,-0.3195624,-0.6961575,-9.830497
48705920,0.004704596,-0.0006371077,0.0004452831,-0.3169007,-0.7012807,-9.837516
48726289,0.004717214,-0.001074671,0.0001919604,-0.3186023,-0.7002217,-9.839577
48745889,0.004344075,-0.001557139,0.0002261552,-0.315239,-0.700056,-9.841457
48765915,0.004102806,-0.002209444,0.0003338808,-0.3165216,-0.6939013,-9.845744
48785938,0.004156179,-0.002707605,0.0002259016,-0.3105348,-0.7019966,-9.840346
48805893,0.004466628,-0.002490249,8.306422e-05,-0.3107386,-0.7087134,-9.838073
48826487,0.004462593,-0.002202686,4.684924e-06,-0.3160981,-0.7099162,-9.835705
48845929,0.003998981,-0.001722617,0.000150128,-0.324916,-0.7010959,-9.835011
48865990,0.003383805,-0.001022322,0.0001357128,-0.33244,-0.697362,-9.838401
48885902,0.00325474,-0.0006389323,0.0001390777,-0.3172818,-0.697442,-9.837755
48905976,0.003187374,-0.0006363074,0.000241911,-0.3158875,-0.6976065,-9.843497
48926291,0.003483233,-0.0007105118,0.0002393421,-0.3196146,-0.7030461,-9.85741
48945931,0.003547608,-0.0006632325,0.0001760039,-0.3248722,-0.7018163,-9.839842
48965990,0.003821676,-0.001051636,0.0001160242,-0.3175589,-0.7000493,-9.831591
48986218,0.003719215,-0.001415321,0.0002210523,-0.314196,-0.7029418,-9.835177
49005912,0.003789786,-0.001210339,0.0002604814,-0.3153399,-0.7053191,-9.833338
49026325,0.00391147,-0.001204604,0.0001902438,-0.3156369,-0.7023337,-9.828831
49045883,0.00423381,-0.00144127,0.0001889113,-0.3151652,-0.6979848,-9.835492
49065956,0.004012394,-0.001529823,7.547056e-05,-0.3169992,-0.7026704,-9.834335
49085886,0.003786604,-0.002016725,7.182442e-06,-0.3201662,-0.7005157,-9.837308
49105945,0.003726791,-0.002220276,-5.72322e-05,-0.3354091,-0.7017142,-9.838481
49126331,0.004144217,-0.00249429,-0.000126057,-0.3280571,-0.6987442,-9.844939
49146189,0.00415362,-0.00280325,3.64715e-05,-0.3201882,-0.7001008,-9.838055
49166006,0.00420082,-0.002833907,0.0002460595,-0.3140812,-0.7043336,-9.83542
49185902,0.00449462,-0.003502036,0.000298747,-0.3126877,-0.6984408,-9.829174
49205960,0.004653335,-0.003877637,0.0001283275,-0.3231359,-0.6961507,-9.837911
49226315,0.004471585,-0.003588421,-1.56718e-05,-0.3321813,-0.6906732,-9.835193
49245890,0.004261528,-0.003270795,-1.026072e-05,-0.3395883,-0.69754,-9.832585
49265977,0.004093906,-0.002581209,0.000102286,-0.3311284,-0.704282,-9.838392
49285911,0.00423568,-0.002262898,7.534915e-05,-0.3115365,-0.7038752,-9.832146
49306132,0.004244211,-0.002212567,8.438982e-05,-0.3212085,-0.6944238,-9.816473
49326328,0.004218932,-0.001844017,1.758774e-05,-0.3256196,-0.6948462,-9.828532
49345934,0.003934179,-0.001625494,5.138367e-05,-0.3176329,-0.6922362,-9.838597
49365975,0.003703987,-0.001507706,0.0001165355,-0.3139414,-0.6995027,-9.838386
49385925,0.003595385,-0.001661599,0.0002009187,-0.3195176,-0.7027127,-9.841798
49405899,0.00350904,-0.001246814,0.0001297249,-0.3225359,-0.7026854,-9.836648
49426322,0.003610182,-0.0009363028,1.209061e-05,-0.3216837,-0.7027793,-9.831289
49445888,0.004109331,-0.001520459,-0.0001888057,-0.3200723,-0.6993459,-9.837563
49466241,0.004485083,-0.001672682,-0.0002951261,-0.3194118,-0.6950485,-9.845143
49485901,0.004703372,-0.001634792,-0.0004306205,-0.3174343,-0.7018403,-9.849597
49505983,0.004564302,-0.001265397,-0.0003691915,-0.3197386,-0.7085398,-9.843719
49526308,0.004408529,-0.0007928591,-8.240696e-05,-0.3108599,-0.7076234,-9.842783
49545911,0.004342421,-0.0006561068,0.0001386741,-0.3196519,-0.703748,-9.853333
49565985,0.004035463,-0.0001557316,0.0001069668,-0.322528,-0.7006838,-9.848555
49585953,0.003963544,4.556663e-05,-1.308132e-05,-0.3160187,-0.7026853,-9.840233
49605936,0.003935929,2.850992e-05,0.0001843144,-0.3151383,-0.696099,-9.837172
49626491,0.0033873,0.0005935965,0.0004333782,-0.3248888,-0.69886,-9.839352
49645924,0.003101456,0.0008153999,0.0004482144,-0.3253082,-0.6992565,-9.844714
49666011,0.00342405,0.0005783146,0.0002828142,-0.3286985,-0.7120895,-9.837234
49685916,0.003984221,9.199366e-05,9.714012e-05,-0.3305548,-0.7047015,-9.828178
49705936,0.004149041,-0.0004466352,0.000200498,-0.3243034,-0.6961932,-9.835173
49726306,0.003779475,-0.0005942642,0.0004017607,-0.3259313,-0.6966434,-9.833855
49745884,0.003636284,-0.000743522,0.0004243536,-0.3202565,-0.6997713,-9.839095
49765991,0.003684682,-0.0006472527,0.0003438122,-0.3207437,-0.7002017,-9.844896
49786109,0.004100138,-0.0008980061,0.0003481194,-0.320981,-0.7049412,-9.827408
49805936,0.004396872,-0.001002695,0.0001344833,-0.3146115,-0.7043156,-9.831625
49826317,0.004231408,-0.001326017,7.463498e-05,-0.3156966,-0.6981581,-9.83822
49845880,0.0039338,-0.001399364,-8.702253e-05,-0.3208104,-0.6991289,-9.830236
49865993,0.003934966,-0.00119768,-0.00015926,-0.3279813,-0.6998219,-9.823551
49885882,0.003761123,-0.0007228674,-7.802169e-05,-0.3282714,-0.7005975,-9.830008
49905972,0.003467743,-0.0004538897,0.0001135134,-0.3317077,-0.6985965,-9.844815
49926296,0.01534788,-0.005182438,-0.005334723,-0.7396507,-0.627728,-10.15588
49946131,0.01838162,-0.008381169,-0.01215456,-0.1399054,-0.5076879,-9.846663
49966011,0.02086281,-0.009599133,0.01393926,0.9471393,-1.422476,-10.8164
49985922,0.008667175,-0.0203987,0.06763267,1.743539,-0.8123127,-9.773384
50005959,0.000559038,-0.01823398,0.1022315,2.986026,-0.6431932,-9.681259
50026302,-0.008017013,-0.01491947,0.07499632,2.76331,0.03761519,-10.36274
50045903,0.005463555,-0.01228445,0.02752345,1.124268,-0.04658043,-9.310163
50065975,0.02315344,0.0008097899,0.02140447,0.7732342,-0.7702359,-10.41905
50085932,0.01809171,-0.002556772,0.08810018,1.961259,-0.952137,-10.36036
50106135,0.01600904,-0.003080289,0.1845267,3.551367,-0.541052,-9.68969
50126294,0.008992617,0.005156926,0.2538753,3.859341,-0.4912804,-9.926537
50145915,0.01610252,0.00781744,0.2971305,3.860371,-0.7845069,-10.02895
50166006,0.02024292,0.008037727,0.2937355,3.072281,-0.8716458,-9.792998
50185960,0.01635963,0.01305054,0.2362646,1.447586,-0.1439506,-10.2983
50205983,0.04161919,0.01453102,0.1589102,0.2580383,-0.8939666,-10.11796
50226311,0.02478025,-0.006621387,0.1084782,0.3291567,-1.327566,-10.07803
50245902,0.01039018,-0.0180202,0.08286294,0.9317102,-1.145155,-9.792299
50266172,0.01230489,-0.03383802,0.05726539,1.061811,-0.3499975,-9.966107
50285897,0.02042855,-0.02963275,0.0425432,0.4846933,-0.6447847,-9.175591
50305922,0.0232945,-0.02568788,0.04782221,0.2740181,-0.8313784,-10.55995
50326313,0.03021129,-0.02237301,0.05372009,0.2795922,-0.4641947,-9.730536
50345890,0.01790288,-0.01544855,0.06011578,0.2468593,-0.7425174,-9.875237
50365983,0.002892028,-0.009099975,0.0659072,0.3893633,-0.7254267,-10.16708
50385889,-0.01414937,-0.0004296834,0.06182251,0.1406398,-0.5200422,-10.17804
50405975,-0.01463547,-0.001627319,0.04914423,0.4005657,-0.07502785,-10.00247
50426553,-0.0003177039,0.008181399,0.02791062,0.2042987,-0.3508055,-9.211867
50445916,0.001234625,0.006740679,0.0004135065,0.4111316,-0.7368335,-11.78453
50465989,-0.0118701,-0.009999946,-0.02962249,0.2221226,-0.6397711,-8.928891
50485953,-0.006583723,0.002282238,-0.06358877,1.970429,-0.6443543,-10.27954
50505922,-0.009254255,-0.01143267,-0.09935603,1.19918,-0.6211139,-9.356024
50526314,0.003293052,0.002196058,-0.1144439,0.5022339,-1.114158,-10.07686
50545897,0.006442088,-0.001219692,-0.07867668,0.199373,-1.575285,-10.34072
50565931,-0.003242409,0.007042999,-0.01085132,0.5042165,-0.7023664,-9.447037
50586126,-0.007179345,0.002364025,0.03897143,1.743512,-0.6983141,-10.78354
50605979,-0.0247474,-0.001079449,0.05340997,0.8775138,-0.06522515,-8.671072
50626251,-0.008770566,0.003564624,0.06326811,1.359725,-1.244574,-10.82211
50645910,-0.01886989,-0.01004426,0.07198602,0.6775357,-0.5110045,-9.427576
50665956,-0.008196195,-0.01956401,0.06504124,0.9984398,-0.9130468,-11.07295
50685904,-0.01541864,-0.04946324,0.04845378,0.2693056,-0.6133462,-9.763677
50705917,-0.01057775,-0.04347898,0.02705514,0.166268,0.04723198,-9.765098
50726317,0.02646685,-0.04155079,0.0111978,0.1607661,-0.6862243,-9.994989
50746168,0.02316667,-0.02962524,0.01258491,0.1185858,-0.06686911,-9.656573
50765961,0.02441511,-0.03181643,0.01288985,0.7751107,-0.8898959,-10.97906
50785927,0.01512675,-0.02377974,0.008028239,0.1615755,-0.3864404,-9.133704
50805899,0.01774781,-0.005897557,0.01986029,-0.2211255,-1.090295,-9.800134
50826296,0.0312159,-0.001267515,0.06339524,-0.189658,-0.959158,-9.953777
50845919,0.01963733,-0.0003831528,0.1189344,1.101667,-0.3396839,-10.15382
50865952,0.008418886,0.005026623,0.1616145,1.832214,-0.8352718,-9.337556
50885957,-0.005963023,0.01701607,0.1790402,2.391431,-0.3291159,-10.33631
50906202,-0.001336957,0.02185052,0.1617198,2.115045,-0.2719759,-9.897632
50926352,0.009988738,0.03118236,0.1116912,1.944198,-0.1515785,-9.847052
50945888,0.01502657,0.0392671,0.03384628,1.257582,-0.2261217,-9.865358
50965911,0.02195466,0.04113112,-0.03922191,0.3554896,-0.531504,-9.99431
50985922,0.03163556,0.02946525,-0.08480199,0.0322041,-0.9683958,-9.611869
51005977,0.05627216,0.03113597,-0.109443,0.6590976,-0.6562589,-9.982702
51026302,0.04472591,0.01563706,-0.114279,0.4237111,-1.488945,-10.78059
51045905,0.02945724,0.0325851,-0.0971076,0.5494428,-0.8223333,-9.785287
51066177,0.01822052,0.03898424,-0.0703414,0.5210929,-0.6145405,-11.1555
51085893,0.0275559,0.0332758,-0.0470922,0.1337571,-0.7786322,-9.835193
51105947,0.007302551,0.01543254,-0.007037606,0.05995325,-0.8688791,-9.954152
51126310,-0.01121052,-0.006529244,0.04429976,0.2132295,-0.7590742,-9.584434
51145919,0.0141468,-0.01122618,0.08090802,0.6567205,-0.1789676,-9.856654
51165964,0.01676275,0.008752592,0.1065017,0.3772366,-0.5896907,-9.857246
51185916,0.02859051,0.01521325,0.1330539,0.7216818,-0.3249743,-10.59
51205916,0.0396066,-0.006660401,0.1475645,0.4964173,-0.5459145,-10.23232
51226474,0.04462327,-0.04786727,0.1445619,0.9146002,-0.1362002,-9.840988
51245894,-0.007469027,-0.06597739,0.1242891,0.3504851,-1.015715,-8.886013
51265931,-0.02622831,-0.04840068,0.1060848,1.70025,-0.6140478,-10.99936
51285899,-0.020997,-0.02217014,0.06991826,1.083942,-0.3458956,-9.905881
51305904,-0.003504066,0.01514805,0.0322253,0.3663856,-0.7394803,-10.15879
51326325,-0.01165958,0.01299063,0.02464683,-0.1733367,-1.907111,-11.11443
51345863,-0.07242995,0.02241275,0.05304068,-0.3111666,-0.07262336,-8.526551
51365954,-0.08533516,0.003094044,0.05353848,-1.645673,1.641576,-10.64001
51386059,-0.1031723,-0.2474383,-0.512901,-12.45704,1.901141,-0.2661942
51405894,-0.4100345,-0.4456626,-1.306348,-4.536578,0.1030791,1.109782
51426302,-0.686947,-0.4249131,-2.166961,-2.841468,-0.7355132,7.262365
51445941,-0.7567242,-0.4513533,-2.896725,-0.9392072,-1.475789,1.798688
51465925,-0.6766442,-0.2968392,-3.471128,-0.6717883,-1.172916,-1.919783
51485933,-0.4278252,0.04699797,-3.806553,-0.3737139,-0.5083156,-4.423521
51505936,-0.07895138,0.347605,-3.806117,-1.868334,-6.304958,-15.54115
51526351,0.1035163,0.3222468,-3.470209,-1.563974,-2.511336,-1.729622
51546159,0.1484485,0.3624116,-3.033841,-1.676346,-3.237394,-6.55729
51565924,0.1435214,0.3143305,-2.522529,-0.1880445,-2.510014,-9.440526
51585887,0.08644362,0.2258487,-1.98604,-0.5756057,-1.271867,-8.437057
51605934,0.09911783,0.1220743,-1.445432,-1.008424,-2.706488,-10.43751
51626293,0.1265695,0.03570938,-0.9856941,-2.290873,-5.152126,-10.48274
51645897,0.1100911,-0.005875339,-0.7135673,-1.677877,-3.636812,-9.619977
51665969,0.0787874,-0.04292589,-0.5530481,-1.347868,-3.711567,-9.823525
51685879,0.04370804,-0.05876725,-0.4542066,-1.973829,-3.204295,-9.654504
51706193,0.01364935,-0.05073128,-0.3610683,-2.299605,-2.791242,-9.625429
51726329,0.02093215,-0.05006583,-0.2450145,-2.090973,-2.388804,-9.780292
51745892,0.007497426,-0.02633931,-0.1130199,-1.13903,-1.396628,-9.750833
51765971,-0.003250944,-0.002518499,0.005971628,-0.2877952,-0.3149965,-9.949621
51785946,-0.008952481,0.01332266,0.08495682,0.2862948,0.1555813,-9.961679
51805950,0.0009541534,0.0129551,0.1059501,0.4004353,0.06877412,-9.898272
51826318,-0.002961942,0.0127501,0.08061942,0.1685184,-0.199591,-9.900675
51845893,-0.007465587,0.009704847,0.03758254,-0.3131211,-0.8280669,-9.878941
51866201,-0.01048768,0.007015757,0.004043608,-0.5599505,-1.195307,-9.756978
51885911,-0.008820287,0.004408445,-0.005291217,-1.096045,-0.9363959,-9.797888
51905884,-0.004999224,0.002946127,-0.0005116452,-0.6090071,-0.595682,-9.840749
51926301,-0.004653782,0.003224651,0.004187032,-0.03218742,-0.3786257,-9.885484
51945903,-0.003353141,0.002171109,0.001160426,-0.1120049,-0.4282911,-9.86884
51965932,-0.001127418,-0.0001347427,-0.004610303,-0.4324989,-0.7158698,-9.827998
51985938,0.0007967023,-0.001626116,-0.005752039,-0.5344911,-0.8247318,-9.80333
52005902,0.001639097,-0.001569647,-0.002435152,-0.3837684,-0.6644551,-9.847476
52026516,0.002580585,-0.001154686,-0.0001347764,-0.2434561,-0.5243102,-9.869804
52045891,0.003265813,-0.001623068,-0.0004722349,-0.3099781,-0.6133549,-9.842093
52065937,0.003634605,-0.001497543,-0.000324815,-0.3880549,-0.720315,-9.811216
52085897,0.003081858,-0.001307509,0.001246752,-0.3067928,-0.6817021,-9.82218
52105957,0.002913977,-0.0008361475,0.001611637,-0.2366723,-0.6395557,-9.836878
52126325,0.003094724,-0.0006959412,0.0006834756,-0.3111151,-0.6944766,-9.825679
52145931,0.002953404,-0.0004349255,0.0007441847,-0.3362803,-0.7035396,-9.825343
52165993,0.002651611,-0.0005510752,0.001208279,-0.2777785,-0.6582438,-9.833658
52186205,0.003250128,-0.000864741,0.0008117789,-0.2820869,-0.6599434,-9.856009
52205976,0.003729578,-0.001104973,0.0003042434,-0.3282361,-0.6969272,-9.840635
52226306,0.00364587,-0.001262721,0.0004689658,-0.3090939,-0.6655376,-9.812796
52245889,0.003666636,-0.001749291,0.0004425309,-0.2882347,-0.6592091,-9.827141
52265988,0.003537061,-0.002541398,0.0002767261,-0.3078995,-0.6995566,-9.833405
52285941,0.003819477,-0.002717464,0.0003985061,-0.3133778,-0.7000512,-9.824147
52305907,0.004106019,-0.002404101,0.0005920756,-0.2945082,-0.6678201,-9.823586
52326322,0.003924761,-0.002100775,0.0004750907,-0.2904515,-0.6748501,-9.818562
52346178,0.004000226,-0.001886251,0.0003598534,-0.3098187,-0.6958668,-9.821218
52365964,0.004233838,-0.001954258,0.0006524564,-0.2976571,-0.6842203,-9.833228
52385938,0.003912943,-0.001609959,0.0006882889,-0.2732182,-0.6781074,-9.833169
52405899,0.003796041,-0.001292619,0.0001686808,-0.4000459,-0.5996528,-9.921697
52426323,0.03131698,-0.01679332,-0.006095003,-1.124117,-0.23583,-10.12153
52445935,0.04429516,-0.02660304,-0.02491182,-0.9994001,-0.4625696,-9.590681
52465977,0.02808774,-0.03003603,-0.06377689,-1.332467,-0.19235,-9.770251
52485910,0.01098488,-0.02849801,-0.1123473,-1.821694,-0.9432302,-9.625194
52506140,-0.009691366,-0.0203858,-0.1235471,-1.845283,-1.542252,-9.618606
52526315,0.004077512,-0.01693544,-0.08711813,-1.487441,-1.416,-9.638088
52545882,0.01226851,-0.008141654,-0.03357755,-0.8151103,-0.3478959,-9.983164
52565990,0.01158178,-0.001675009,-0.002481442,-0.4720693,-0.1538442,-9.694051
52585915,0.005028335,-0.0008293484,-0.00259773,-0.5886982,0.5659505,-10.33983
52605969,0.02612732,-0.01323134,-0.03163095,-1.128798,-0.4422878,-9.703925
52626285,0.02065082,-0.02060129,-0.0802858,-1.607362,-0.6479244,-9.899858
52645943,0.007671631,-0.02382541,-0.1427745,-1.916609,-1.483591,-9.437888
52666226,0.0110547,-0.02964916,-0.1943613,-1.925457,-1.698876,-9.852771
52685924,-0.01064166,-0.01536229,-0.2139072,-1.367522,-0.2193162,-9.867506
52705960,0.01468244,-0.02238658,-0.2162256,-1.089364,-0.6022984,-9.985722
52726357,0.003505211,-0.01391254,-0.2140933,-1.14244,-0.8868682,-9.413694
52745910,-0.01704688,-0.002464838,-0.1827143,-0.73027,0.1008804,-10.16139
52765948,-0.01556339,0.002970567,-0.1147962,-0.4693929,-0.2696255,-9.965021
52785885,-0.001921973,0.005998285,-0.03946121,0.1170946,-0.3769124,-9.929866
52805899,0.003255642,0.004192857,0.01043685,0.2763274,-0.5676595,-10.00876
52826508,0.006039063,0.0005082097,0.03252737,0.01817065,-0.770668,-9.972977
52845945,0.007945738,-0.003277362,0.04474417,-0.2039682,-0.9792798,-9.751292
52865955,0.008576732,-0.005326695,0.05408398,-0.2090267,-0.8662301,-9.949157
52885890,0.008481639,-0.006062462,0.06068641,-0.0612966,-0.7018461,-9.731256
52905963,0.01189374,-0.01098427,0.05921184,-0.02907984,-0.67348,-9.97701
52926373,0.01124724,-0.008681732,0.05697842,0.1595057,-0.6725048,-9.837008
52945922,0.0100259,-0.008223118,0.05299394,0.3161978,-0.7605641,-9.926293
52966011,0.008971556,-0.008300363,0.04359592,0.08715529,-0.5351152,-9.90638
52986210,0.008651031,-0.006349353,0.03759117,0.0876801,-0.8841459,-9.760812
53005961,0.008076929,-0.006890816,0.03370969,0.04608133,-0.8107734,-9.822136
53026322,0.006565243,-0.005245171,0.03130703,0.124772,-0.6492893,-9.745868
53045896,0.005616471,-0.0006541039,0.02640336,0.2566819,-0.8529794,-9.745181
53065931,0.005266035,-0.001568489,0.01988333,0.04757045,-0.7394617,-9.785634
53085938,0.0006895674,-0.002558484,0.01846414,-0.02528641,-0.7447108,-9.80013
53105910,0.00280553,-0.002871499,0.0175323,0.1742934,-0.7342603,-9.953023
53126377,0.0007185171,0.002468664,0.01402846,0.1630226,-0.403551,-9.785772
53146221,0.001757323,0.005532769,0.01340884,0.1133225,-0.7087885,-9.761303
53165984,0.00394133,0.006868046,0.01238681,-0.01826739,-0.7770852,-9.876757
53185885,0.003471365,0.009210506,0.01515573,-0.03600754,-0.6409901,-9.765726
53205985,0.005599728,0.007831404,0.01943362,-0.03486379,-0.7621896,-9.837279
53226322,0.002484109,0.007864996,0.01862363,-0.07713217,-0.7594625,-9.807155
53245895,0.001269842,0.00370547,0.01621813,-0.1231737,-0.8096325,-9.834814
53265978,-0.00197476,0.003700444,0.0127263,0.006575525,-0.6499094,-9.851969
53285891,-0.001531624,0.0005142757,0.01382327,0.0170899,-0.6005129,-9.921832
53306237,-2.404275e-05,-0.0005679928,0.01567555,0.2510343,-0.9373825,-9.805505
53326326,-0.002310689,-0.0004644759,0.01655227,0.4345461,-0.777499,-9.867818
53345938,0.0006004795,-0.001213537,0.02192553,0.6185351,-0.625074,-9.838529
53365982,0.001608823,1.94678e-05,0.0254136,0.7381287,-0.7025834,-9.861719
53385875,0.002151031,8.744267e-05,0.02024008,0.4771186,-0.7636974,-9.871709
53405909,0.003268099,-0.001491044,0.01123491,-0.02575372,-0.7388897,-9.833719
53426303,0.001795342,-0.001348287,0.004169885,-0.2583371,-0.6948345,-9.836655
53445981,0.006675807,-0.0009923684,0.004158793,-0.1720711,-0.7693946,-9.894275
53466216,0.02385944,0.0008291345,0.05193017,0.3883936,-0.7445707,-9.923343
53485941,0.03209827,0.001834172,0.1313143,0.8117307,-0.02055886,-9.923056
53505910,0.03346976,0.002877099,0.1970624,0.7098961,-0.02337598,-9.5693
53526367,0.03762992,-0.0005800927,0.2196375,0.4867405,-0.3568258,-10.10412
53545920,0.02426757,0.001580556,0.2048365,-0.08691993,-0.6573007,-9.842717
53565966,0.0253445,-0.0003774899,0.1869779,-0.1437387,-1.171799,-9.871172
53585896,0.02282593,0.001779456,0.2024437,0.05877338,-0.756586,-9.852141
53605920,0.02607156,0.002109047,0.2377394,0.2480742,-0.4364731,-9.707593
53626515,0.02313404,0.002313696,0.2604562,0.4122386,0.1280649,-10.13267
53645891,0.02740282,0.001693402,0.2736934,0.179653,-0.5526159,-9.587515
53665981,0.01798761,0.003083598,0.2936315,0.1477506,-0.718694,-9.893684
53685932,0.02237723,0.006248662,0.3115278,0.3552187,-1.083998,-10.11164
53705918,0.01901501,0.01177167,0.3311351,0.1683787,-0.7548881,-9.370518
53726301,0.02623745,0.01204402,0.3275129,0.331917,-1.517395,-10.51819
53745922,0.01418106,0.01728512,0.2932207,0.1084908,-1.113348,-9.585242
53766010,0.02323344,0.009701228,0.2380559,0.1122058,-0.9381697,-10.30406
53786157,0.01767872,0.01146114,0.1912552,0.00705414,-1.061886,-9.51282
53805909,0.01511461,0.008394637,0.1544364,0.4209832,-1.012092,-10.28155
53826305,0.01385912,0.008044348,0.1331244,0.1695635,-0.8181741,-9.731835
53845883,0.002612995,0.01788283,0.1240169,-0.01555617,-0.5717506,-10.01215
53865964,-0.0004602937,0.01469169,0.1146574,-0.1624558,-0.7875589,-9.888762
53885892,-0.001146241,0.01844689,0.088895,-0.04935716,-0.8245548,-10.09788
53905914,-0.009329827,0.01993386,0.05063031,-0.4794607,-0.5704061,-9.989358
53926322,-0.0007840301,0.01595227,0.01659829,-0.6757872,-0.5436653,-10.0477
53946168,-0.009632927,0.02213068,0.005379709,-0.7263553,-0.6050496,-9.780266
53965937,0.005985533,0.01212237,0.02471653,-0.3285646,-1.084989,-9.319578
53985943,0.008251033,0.01384258,0.06373919,-0.4151325,-1.350621,-10.0442
54005976,-0.01118483,0.03269919,0.1075893,-0.02653681,-0.7202706,-9.772031
54026314,-0.01133187,0.03597851,0.1244336,-0.2392169,-0.4155983,-10.22119
54045875,-0.02262169,0.03966943,0.1007999,-0.4867632,-0.1753256,-9.991828
54065977,-0.03618814,0.02817002,0.04763931,-6.098397,2.066427,-9.852661
54085910,0.0001121244,-0.02888636,-0.07734969,-8.448191,1.533097,-9.793865
54106142,-0.008155127,-0.03413808,-0.203009,-3.155133,-1.37579,-9.518471
54126299,0.007028236,-0.03852394,-0.2467227,-1.158959,-2.716296,-9.431454
54145909,0.009510828,-0.02880859,-0.2022133,-0.6874021,-2.305506,-9.541151
54165932,0.02420058,-0.01862426,-0.09894091,-0.2743619,-1.33241,-9.604709
