TimeUS,GyrX,GyrY,GyrZ,AccX,AccY,AccZ
12798651,0.001422175,0.0007891829,0.0002360837,-0.4169619,-0.7462734,-9.810602
12818539,0.001364731,0.0004099272,0.0001878185,-0.4139262,-0.7467031,-9.813276
12839088,0.001627755,-8.573096e-05,0.0001708814,-0.4128536,-0.7484542,-9.816499
12858471,0.001985816,-0.0001583313,0.0001132858,-0.4109575,-0.7477103,-9.809839
12878493,0.002040224,0.0001479953,-3.305927e-05,-0.4091197,-0.7480351,-9.812149
12898494,0.001827006,0.0002600348,-0.0001151529,-0.4161997,-0.7442663,-9.805019
12918528,0.001534714,-1.145339e-05,-6.48711e-05,-0.4209518,-0.7468624,-9.806202
12938854,0.001098491,8.875276e-05,8.206043e-05,-0.4131432,-0.7534307,-9.796489
12958430,0.0008291659,0.0004612101,8.590409e-05,-0.4141021,-0.7484245,-9.790441
12978478,0.0007228287,0.001153414,-1.64201e-05,-0.4121837,-0.7462807,-9.78628
12998696,0.001131952,0.001184799,-0.000236976,-0.4039992,-0.7478032,-9.792052
13018499,0.001425165,0.001185262,-0.0004080197,-0.4077776,-0.7459106,-9.805821
13038854,0.001813465,0.0008547116,-0.0003394582,-0.418543,-0.7424156,-9.791736
13058430,0.001983051,0.0004902587,-0.0002592028,-0.413252,-0.7468136,-9.783526
13078541,0.002077107,0.0005528522,-0.0001814815,-0.4039169,-0.7460307,-9.793226
13098492,0.001915965,0.0004586615,-0.0001360281,-0.405059,-0.7492561,-9.805826
13118450,0.001939927,-6.08966e-05,-0.0001378772,-0.3972952,-0.7549643,-9.791389
13138858,0.001780829,-0.0004619937,0.0001365503,-0.3966931,-0.7478459,-9.790972
13158690,0.001588551,-0.0001869596,0.0003853808,-0.4049366,-0.7411692,-9.799446
13178490,0.001457965,-0.000155172,0.000603231,-0.4095751,-0.7431456,-9.800241
13198475,0.001622072,-0.0007258038,0.0005381279,-0.4196292,-0.7432908,-9.808334
13218464,0.001588619,-0.0005415666,0.0003546111,-0.4115258,-0.7489747,-9.814401
13238859,0.001525408,0.0001625681,0.0002279161,-0.4110355,-0.7476041,-9.810734
13258534,0.001479249,0.0005035988,0.0001176304,-0.4141898,-0.7449557,-9.800112
13278499,0.001427804,0.000107457,4.902441e-05,-0.4108964,-0.7429585,-9.793328
13298437,0.00123185,8.444238e-05,0.0001093701,-0.4110997,-0.7493409,-9.790748
13318686,0.0009960047,7.543102e-05,0.0001215841,-0.4032443,-0.7481983,-9.796941
13338932,0.001083312,-0.0001378475,0.0001686301,-0.4081452,-0.748116,-9.810171
13358480,0.001193517,-0.0002001894,0.0002132859,-0.4101189,-0.7462097,-9.805954
13378468,0.001446016,9.955181e-05,0.0002646268,-0.4051808,-0.7484649,-9.812141
13398436,0.001640671,0.0003294422,0.0001963668,-0.40416,-0.7491959,-9.81079
13418551,0.002029157,0.0003011751,3.514662e-06,-0.4014842,-0.7465937,-9.805391
13438862,0.002043833,0.0004851159,-0.0001293136,-0.4025069,-0.7447864,-9.80961
13458504,0.001937928,0.0005629095,-0.0001446347,-0.4013007,-0.7443392,-9.798105
13478695,0.001798632,0.000574295,6.702625e-05,-0.3996407,-0.7475888,-9.788349
13498504,0.002052333,0.000495397,0.0002179841,-0.3936389,-0.7500508,-9.782945
13518506,0.002324917,0.0001564123,3.666775e-05,-0.3999014,-0.7510746,-9.7974
13538853,0.002506881,-0.0002634507,5.580204e-05,-0.3984653,-0.7518236,-9.79626
13558466,0.002457341,-0.0008754934,7.841944e-05,-0.4008829,-0.7525721,-9.811934
13578545,0.002177057,-0.001180382,0.0001576195,-0.4045304,-0.7501832,-9.812913
13598479,0.002076857,-0.001667869,0.0001563648,-0.4048,-0.7477704,-9.808434
13618460,0.001753361,-0.001699476,0.0001697436,-0.4107427,-0.7506789,-9.806394
13639039,0.001569278,-0.001452103,2.180043e-05,-0.4133926,-0.7497957,-9.80321
13658511,0.001506135,-0.0006894278,-0.0001047384,-0.4059665,-0.7518694,-9.804915
13678504,0.001300749,-5.690182e-06,8.078037e-05,-0.4069791,-0.7543391,-9.81187
13698409,0.00114813,0.0003408843,0.0002879323,-0.4028097,-0.7513966,-9.803175
13718448,0.0009688115,0.0006813184,0.0004455232,-0.4010721,-0.7523509,-9.809237
13738849,0.0007860015,0.0009768035,0.0005166271,-0.4070053,-0.754539,-9.809406
13758460,0.0007921631,0.001020436,0.0005888828,-0.4074341,-0.7518091,-9.810231
13778509,0.001400664,0.000923332,0.0004715108,-0.4027498,-0.7540483,-9.814097
13798661,0.0016504,0.0008459415,0.0003542338,-0.3953548,-0.7506987,-9.810038
13818467,0.001518106,0.0008798526,0.0002837269,-0.4009998,-0.7491782,-9.807424
13838853,0.001751676,0.0002908423,0.0002527473,-0.4033429,-0.750501,-9.80034
13858497,0.001872447,-0.0001590774,0.0002428427,-0.4067278,-0.755545,-9.798151
13878508,0.001689832,-0.0006671232,0.0001945603,-0.4106843,-0.7523239,-9.801793
13898436,0.001242483,-0.0004837855,9.910085e-05,-0.4050754,-0.7544303,-9.797709
13918513,0.0009407336,-9.483415e-05,0.0001729257,-0.408804,-0.7519653,-9.809275
13938859,0.0008741827,-7.979426e-05,0.0001341101,-0.4089787,-0.7466893,-9.818667
13958652,0.000973941,2.440288e-05,-6.228837e-05,-0.4097494,-0.7485053,-9.819322
13978468,0.001306059,-9.145579e-06,-0.0001881409,-0.4012039,-0.7546409,-9.824928
13998465,0.001474157,0.0003622405,-0.0002359057,-0.3966144,-0.7530091,-9.817163
14018525,0.001507085,0.0006036455,-0.0002029315,-0.3987616,-0.7501408,-9.812331
14038850,0.001504799,0.0007885925,-0.0001901202,-0.3943316,-0.7492515,-9.800783
14058431,0.001397766,0.0008344282,-0.0001599068,-0.3923942,-0.7500786,-9.807342
14078525,0.001523269,0.0006443937,6.395828e-05,-0.399707,-0.7466761,-9.816513
14098439,0.001550534,0.0008627972,0.0002337346,-0.3981986,-0.7481766,-9.809284
14118654,0.001460011,0.001402064,0.0004064214,-0.4016921,-0.7481517,-9.808948
14138852,0.001374721,0.001690077,0.0004460693,-0.4024762,-0.750534,-9.807848
14158474,0.001586998,0.001382957,0.0003458986,-0.403217,-0.7521511,-9.804689
14178519,0.001871239,0.0009160112,0.0002692122,-0.4045319,-0.7535482,-9.811784
14198430,0.001878981,0.0005819361,0.000322623,-0.4015191,-0.7493547,-9.807454
14218442,0.001939656,0.0004521721,0.0003445003,-0.4058494,-0.7500073,-9.818511
14238859,0.001893746,0.0005008514,0.000311948,-0.4057458,-0.7525354,-9.826385
14258499,0.001878109,0.0004062368,0.0003166721,-0.397484,-0.7526606,-9.823645
14278658,0.00195904,0.0001272017,0.0001309862,-0.3968656,-0.7473117,-9.815382
14298447,0.001656325,0.0003440513,-4.550264e-05,-0.4073948,-0.7508037,-9.814348
14318480,0.00142189,0.0001966373,-8.720969e-05,-0.4182366,-0.7544696,-9.80771
14338917,0.001328934,0.0002645613,7.015646e-05,-0.4129052,-0.7510504,-9.805869
14358485,0.001108095,-7.61005e-05,0.0001518878,-0.408245,-0.7505698,-9.81151
14378477,0.0007672788,-0.0004580622,0.0002159381,-0.4013124,-0.752619,-9.819077
14398450,0.0005055703,-0.0007175895,0.0003633189,-0.4022224,-0.751491,-9.829125
14418534,0.0005934708,-0.0008414009,0.0003714887,-0.4002556,-0.7557197,-9.82193
14439073,0.001040416,-0.001153303,0.0002886839,-0.3978307,-0.7525629,-9.815414
14458424,0.001196276,-0.001080782,7.906905e-05,-0.4060191,-0.7482892,-9.814813
14478476,0.00122959,-0.00100604,-2.634415e-05,-0.4103776,-0.7486308,-9.809166
14498494,0.001310761,-0.001038818,-5.644499e-05,-0.4096923,-0.7559927,-9.813858
14518521,0.001044533,-0.0009590607,-7.815847e-05,-0.4072236,-0.7520249,-9.813365
14538851,0.0007337079,-0.000902122,-5.65571e-05,-0.4061485,-0.7535463,-9.818482
14558430,0.0006844,-0.0006145765,-9.869309e-05,-0.3972178,-0.7555618,-9.812868
14578511,0.0008510363,-0.0004055883,-2.561272e-05,-0.4001051,-0.7551663,-9.80794
14598621,0.001127193,-0.0002415463,-3.80159e-05,-0.3983947,-0.7569289,-9.815124
14618458,0.001245314,-0.0003139365,-4.088137e-05,-0.4029427,-0.7608307,-9.814699
14638865,0.001232344,-2.961621e-05,8.495336e-05,-0.4021374,-0.7594212,-9.812885
14658471,0.0009006328,0.0004104002,0.0001843984,-0.3992395,-0.7599054,-9.818031
14678527,0.0007045588,0.001175979,9.02208e-05,-0.3950887,-0.7595283,-9.819195
14698492,0.0009073165,0.001179079,-3.028073e-05,-0.3911144,-0.7551034,-9.803055
14718453,0.001403865,0.0006040742,-0.000121005,-0.3954275,-0.750882,-9.826967
14738843,0.001504676,0.000419402,-0.000181174,-0.3985434,-0.7503576,-9.838707
14758672,0.00136686,0.0005590727,-0.0002378564,-0.402003,-0.7577081,-9.828888
14778518,0.001094255,0.0006883288,-0.0001347088,-0.4011242,-0.7634264,-9.817768
14798475,0.0009415261,0.0004735802,-0.0001623091,-0.4069467,-0.7633561,-9.81403
14818465,0.000674626,0.000201174,-8.063066e-05,-0.4084605,-0.7652799,-9.825863
14838849,0.0007006793,0.0004325297,-2.954878e-05,-0.3967566,-0.7586363,-9.830095
14858508,0.0009019183,0.0004847487,-5.937305e-05,-0.3983583,-0.7572008,-9.820007
14878508,0.0008214892,0.0003806751,-0.000265255,-0.3990299,-0.7629459,-9.825233
14898464,0.0008370991,0.0003817842,-0.0001799701,-0.4073053,-0.7595974,-9.819967
14918733,0.0007149266,0.0001941176,-2.580358e-05,-0.4057327,-0.7558191,-9.818885
14938838,0.0002720985,0.0003987562,0.0001544422,-0.3985541,-0.7529152,-9.818977
14958416,0.0001909323,0.0005933475,0.0002337487,-0.4098585,-0.7545192,-9.814287
14978468,0.0004797817,0.0004519571,0.0004738663,-0.4045867,-0.7584231,-9.814823
14998487,0.0007544726,0.0004465346,0.0004543083,-0.4023917,-0.7652964,-9.824638
15018522,0.001218265,0.0003129306,0.0003427601,-0.4074531,-0.7622992,-9.832197
15038848,0.001670929,0.0002355957,0.0005098106,-0.4067362,-0.7594678,-9.822409
15058433,0.001649767,0.0004177374,0.000585761,-0.4006953,-0.7521511,-9.809306
15078702,0.001457172,0.0008838427,0.0004336151,-0.4013931,-0.7542409,-9.816355
15098492,0.001431385,0.0007636828,0.0001537112,-0.400101,-0.7582088,-9.820416
15118446,0.00114979,0.0006675143,-6.65942e-05,-0.3974572,-0.7603921,-9.836872
15138843,0.0004888454,0.001173555,-6.211728e-05,-0.3912028,-0.7570584,-9.834225
15158497,0.0002324907,0.0007581315,-1.621832e-05,-0.4011791,-0.7568672,-9.831796
15178514,0.0003641851,0.0001784377,9.576303e-05,-0.4002981,-0.7648664,-9.828122
15198434,0.0008995106,-0.0006423059,0.0001962608,-0.3961833,-0.7627505,-9.834996
15218454,0.001532785,-0.0007362035,0.0002905285,-0.3994522,-0.7578902,-9.846174
15239057,0.002422938,-0.0007405442,0.0002598983,-0.4087838,-0.7579435,-9.835886
15258496,0.002799707,-0.0009386289,0.0001953239,-0.4076467,-0.7608076,-9.838857
15278505,0.002635814,-0.0007365097,0.0001991901,-0.4024117,-0.7623499,-9.829632
15298434,0.002349036,-0.0005531261,0.0001249872,-0.4011344,-0.7617378,-9.822845
15318484,0.002302513,-0.0006173379,9.36951e-05,-0.4025324,-0.7558683,-9.813103
15338849,0.002284485,-0.0005760192,0.0001079143,-0.4029863,-0.7559808,-9.818376
15358450,0.002128256,0.0001061761,0.0002708162,-0.3958923,-0.7578567,-9.822082
15378468,0.001745439,0.0003147513,0.0004637644,-0.3961978,-0.7605345,-9.821739
15398634,0.001331335,9.213377e-06,0.0006091695,-0.399941,-0.7677127,-9.821392
15418503,0.001295695,-5.608057e-05,0.0004780067,-0.4007699,-0.7717256,-9.827271
15438860,0.001271022,9.373145e-05,0.0002215673,-0.4159836,-0.7639329,-9.828012
15458425,0.001045558,0.0002271131,0.0002518494,-0.409409,-0.7584205,-9.836527
15478458,0.0008791644,0.000388214,0.0003128109,-0.4113172,-0.7588366,-9.838555
15498462,0.0007634631,0.0006035508,0.0004224402,-0.4160898,-0.7569929,-9.831644
15518519,0.0006316088,0.0006448899,0.0002442838,-0.4121593,-0.7556851,-9.816641
15538837,0.0004270102,0.0008111268,0.0001027766,-0.4047797,-0.7585894,-9.820583
15558666,0.0004849939,0.000926883,5.753004e-05,-0.4135908,-0.7551276,-9.828774
15578455,0.0005060298,0.0007979918,-2.71099e-06,-0.4087302,-0.7511544,-9.82772
15598489,0.000570694,0.0005784158,-5.335722e-05,-0.4017028,-0.760617,-9.830791
15618487,0.0008600621,0.000202761,0.0002125361,-0.4055675,-0.7673928,-9.833244
15638832,0.001146754,0.0003171212,0.0002593881,-0.4090858,-0.7642711,-9.832675
15658432,0.001359597,0.0002986888,0.0002105018,-0.4063863,-0.7643187,-9.829564
15678574,0.001723103,7.991695e-05,0.0001076366,-0.4097076,-0.7691161,-9.828804
15698460,0.002191195,0.0001231621,0.0001129219,-0.4034531,-0.7698106,-9.844391
15718654,0.002180091,0.0005898628,0.0001742841,-0.4023673,-0.764505,-9.835934
15738900,0.001937835,0.0008725807,2.300588e-05,-0.4125984,-0.7606066,-9.819407
15758490,0.001728301,0.0005095084,-8.558301e-05,-0.4178266,-0.762243,-9.812049
15778511,0.00133713,0.0005285196,-0.0002147954,-0.4138643,-0.7689844,-9.81555
15798429,0.001078362,0.0009220092,-0.0001728382,-0.4017914,-0.7702471,-9.825688
15818510,0.001083095,0.0008149789,-8.959661e-05,-0.3920231,-0.7697421,-9.828373
15838896,0.001199383,0.0002517107,-0.0001790301,-0.3986754,-0.7633666,-9.835818
15858403,0.001577354,-0.0004680348,-0.0001966025,-0.3967335,-0.7603493,-9.84219
15878678,0.001939147,-0.0006757943,-0.0003241144,-0.3976288,-0.7616464,-9.84892
15898440,0.001973577,-0.0009899436,-0.0002296687,-0.399043,-0.7587801,-9.838112
15918500,0.00190681,-0.0009679486,-8.38151e-05,-0.4020919,-0.7614504,-9.835309
15938844,0.001847555,-0.0007435338,-0.0001506356,-0.4039536,-0.7584303,-9.836334
15958440,0.002250617,-0.0008093028,-0.0001266424,-0.3982433,-0.7590293,-9.832474
15978489,0.0022763,-0.001246791,8.378192e-05,-0.3915463,-0.7580861,-9.83668
15998488,0.00227846,-0.0009891146,0.0002643942,-0.3863826,-0.7601762,-9.824335
16018482,0.002128162,-0.0006753352,0.0004253928,-0.3923414,-0.7575749,-9.831848
16039060,0.002089367,-0.0006609469,0.0004893334,-0.401664,-0.7614836,-9.830872
16058432,0.002274534,-0.0005675385,0.0003157068,-0.4118332,-0.7587833,-9.841047
16078458,0.002513895,-0.0004365449,0.0003444656,-0.4061094,-0.7566639,-9.837394
16098475,0.002441411,-0.0001183876,0.0002766202,-0.4059892,-0.7561201,-9.844408
16118499,0.002108861,0.0001903901,0.0002211894,-0.4080695,-0.759261,-9.828302
16138852,0.001817628,0.0004912119,0.0002002859,-0.4079878,-0.7621346,-9.827402
16158437,0.001421693,0.0008383667,0.0001815664,-0.4023406,-0.7682182,-9.826084
16178537,0.001165609,0.001126143,-8.486172e-05,-0.397112,-0.7743126,-9.828958
16198646,0.001076269,0.001048316,-0.0003758127,-0.3933515,-0.7722949,-9.835921
16218433,0.0009536975,0.0009777849,-0.0004526295,-0.3897592,-0.766054,-9.843083
16238906,0.001325978,0.0004443802,-0.0003980468,-0.3954197,-0.7678673,-9.839248
16258516,0.001569205,0.0002521143,-0.0002920837,-0.3949248,-0.7696172,-9.832767
16278511,0.001786798,0.000254869,-0.0003222194,-0.3930422,-0.7657074,-9.834548
16298417,0.001905767,0.0005434326,-0.0003754532,-0.4019414,-0.7606512,-9.835899
16318464,0.002006137,0.0008852984,-0.0003192101,-0.3989789,-0.7624359,-9.829499
16338909,0.002210026,0.001011939,-0.0003445302,-0.4029101,-0.7590603,-9.825798
16358649,0.002382154,0.0007684027,-0.0005455419,-0.403703,-0.7553318,-9.838726
16378515,0.002142054,0.00059824,-0.0005372925,-0.4031297,-0.7659183,-9.839424
16398433,0.001839576,-0.0001428403,-0.0005531888,-0.3972111,-0.7705772,-9.832167
16418528,0.001729597,-0.0007706722,-0.0004882848,-0.3949513,-0.7704886,-9.836528
16438853,0.001799108,-0.0008722088,-0.0001756815,-0.4024293,-0.7663326,-9.840745
16458426,0.001850479,-0.0005885362,0.000126919,-0.4093727,-0.7668577,-9.828153
16478501,0.00178654,3.856726e-05,0.0001028749,-0.4081563,-0.7688898,-9.828151
16498518,0.001917933,0.0003622831,0.0002084326,-0.4105968,-0.766744,-9.839925
16518671,0.002163707,0.0007533124,9.642102e-05,-0.410329,-0.763247,-9.834994
16538852,0.001778897,0.001012387,8.836989e-05,-0.393468,-0.7626095,-9.831005
16558425,0.001518862,0.001196288,0.0001375703,-0.3931326,-0.765331,-9.836307
16578504,0.001319839,0.0012525,8.385807e-05,-0.3989887,-0.7681692,-9.841754
16598488,0.001234628,0.0007795211,-5.796696e-05,-0.3975039,-0.7666552,-9.832773
16618460,0.001533081,7.454108e-06,-2.654607e-05,-0.4022907,-0.7669271,-9.82592
16638880,0.001778414,-0.0002067054,1.983577e-05,-0.3927062,-0.7658262,-9.820084
16658501,0.001854732,-0.000128493,-5.656009e-05,-0.3966329,-0.7631518,-9.834165
16678781,0.001697535,-0.0005638608,-2.842287e-05,-0.4004926,-0.7637193,-9.842916
16698424,0.001664195,-0.0008011659,-9.216607e-06,-0.4029219,-0.7625998,-9.840243
16718463,0.001781615,-0.0008474797,0.0001514595,-0.4038027,-0.7596568,-9.837142
16738894,0.002230728,-0.0009675305,0.0002111623,-0.4023916,-0.7615796,-9.842991
16758485,0.00273302,-0.000711408,0.0002902062,-0.3956368,-0.7641504,-9.847398
16778544,0.002879239,-0.0005179409,0.0003513414,-0.4006068,-0.7607118,-9.841309
16798435,0.002748491,2.133581e-05,0.0001518932,-0.3994023,-0.7573745,-9.824613
16818478,0.00230311,0.0001428509,-8.899769e-05,-0.3991149,-0.7592873,-9.827395
16839087,0.001971782,7.865916e-05,-0.000155735,-0.4003389,-0.7650204,-9.828157
16858434,0.001731436,9.600316e-06,-0.0001160645,-0.4082934,-0.7642512,-9.8283
16878499,0.001999704,-6.232785e-05,0.000163846,-0.4034533,-0.7623498,-9.829198
16898493,0.002166613,-0.0001561086,0.0002644454,-0.4007958,-0.7656155,-9.832805
16918500,0.002229408,0.0002856257,0.0003081705,-0.3893512,-0.7685482,-9.831747
16938842,0.002111759,0.0005439488,0.0002754212,-0.3913529,-0.7678918,-9.819469
16958484,0.001698582,0.0009215028,0.0003498588,-0.4070812,-0.7663446,-9.820476
16978534,0.001170974,0.00131235,0.0003363107,-0.4067331,-0.7630151,-9.826708
16998636,0.001550912,0.001143134,0.0001329998,-0.3909623,-0.7624189,-9.830197
17018467,0.002156222,0.0004518475,-0.0001547784,-0.3973311,-0.7598784,-9.838545
17038888,0.002486762,-0.0001714866,-8.829064e-05,-0.4041886,-0.7661117,-9.84374
17058512,0.002760998,-0.000770459,7.905869e-05,-0.3970966,-0.7628298,-9.836036
17078546,0.003179919,-0.001766072,-8.158291e-05,-0.3968853,-0.7567995,-9.831347
17098424,0.003162461,-0.001735541,-0.0003333861,-0.4020315,-0.7585741,-9.823446
17118480,0.002824529,-0.001040178,-0.0006004244,-0.4083827,-0.7587642,-9.835627
17138913,0.002422958,-0.0004227716,-0.0006624174,-0.4062483,-0.7584116,-9.827551
17158647,0.001970019,0.0001016874,-0.0005692526,-0.3963718,-0.7639468,-9.818236
17178523,0.001530802,0.0006143471,-0.0004401512,-0.3966709,-0.7666133,-9.815789
17198456,0.00123562,0.0008879064,-0.0002750248,-0.4008725,-0.7667639,-9.827347
17218534,0.001395613,0.001045954,-0.0003899962,-0.3998503,-0.7654708,-9.83547
17238847,0.001719587,0.0009284305,-0.0004618636,-0.4079151,-0.7612279,-9.830205
17258424,0.001791248,0.0007809192,-0.0003880365,-0.4027662,-0.7590728,-9.818722
17278458,0.001471412,0.000638304,-0.0002495782,-0.4029576,-0.7608678,-9.826365
17298425,0.001370155,0.0003229691,-0.0002968213,-0.3969685,-0.7642832,-9.836173
17318713,0.001850058,-0.000137043,-0.0002605473,-0.3917082,-0.7665343,-9.837298
17338853,0.002489994,-0.000300635,-0.0001776148,-0.3832232,-0.767642,-9.845288
17358429,0.00250579,-0.0002237842,-8.769658e-05,-0.3897187,-0.7657101,-9.842938
17378491,0.002311134,1.787734e-05,4.420087e-05,-0.397104,-0.7586806,-9.824861
17398502,0.001967362,0.0004468517,0.0001603375,-0.4037855,-0.7579899,-9.823356
17418505,0.002055444,0.0003539619,0.0003101423,-0.4065555,-0.764345,-9.828835
17438844,0.002292183,0.0005116777,0.0004245075,-0.4131165,-0.7661439,-9.831503
17458495,0.002421533,1.400587e-05,0.0005158521,-0.4176525,-0.7666971,-9.831768
17478762,0.002419923,-0.0005777187,0.0003537376,-0.4182034,-0.7645084,-9.827999
17498493,0.002307168,-0.0007285235,0.0001688359,-0.4110936,-0.7648777,-9.832808
17518478,0.002262459,-0.0007118608,-5.930304e-05,-0.4037019,-0.7649988,-9.826404
17538856,0.001862283,-0.0005330063,-0.0001489637,-0.3975411,-0.7639956,-9.827546
17558444,0.001655259,-0.00019269,-0.0001870365,-0.3996081,-0.7615708,-9.828361
17578528,0.001436981,-0.0002910137,-0.0001623909,-0.4008501,-0.760062,-9.839016
17598516,0.001130321,-6.478118e-05,-0.0002109499,-0.4014109,-0.7630663,-9.848125
17618432,0.0008963689,0.0007331525,-9.608654e-05,-0.4042442,-0.7624475,-9.836671
17639027,0.0007810912,0.001036844,0.0001237056,-0.4087787,-0.7621474,-9.829585
17658484,0.0007243845,0.001140476,0.0002342413,-0.3990874,-0.7616727,-9.832302
17678535,0.0008595031,0.001172242,0.0001608633,-0.3899027,-0.7642967,-9.835456
17698438,0.001097204,0.001127619,1.207788e-05,-0.3990327,-0.7640377,-9.837873
17718454,0.001507418,0.0006528303,-0.000203576,-0.4006889,-0.7556377,-9.828018
17738922,0.002162093,-1.539058e-05,-0.0002673679,-0.403749,-0.760139,-9.820569
17758451,0.002442345,4.60406e-05,-0.0003996273,-0.4077905,-0.7626636,-9.812181
17778492,0.002397127,0.0006950114,-0.0006917822,-0.4093754,-0.7621865,-9.815443
17798652,0.001897581,0.0008355684,-0.0006106202,-0.4107048,-0.7623515,-9.822933
17818486,0.001690153,0.0006401213,-0.0005657572,-0.3977435,-0.7664024,-9.827221
17838856,0.001744153,0.0009256837,-0.0003586446,-0.4001279,-0.7640643,-9.823737
17858447,0.001658107,0.00145264,-0.0002266066,-0.4030202,-0.7680026,-9.83395
17878490,0.001602546,0.001346535,-0.0001284138,-0.4035757,-0.7645254,-9.837462
17898439,0.001303158,0.00144897,1.525116e-05,-0.4018393,-0.7635942,-9.826206
17918529,0.0008556491,0.001534954,0.0001440261,-0.4028963,-0.762778,-9.817293
17938847,0.0009009839,0.001267867,0.0002174629,-0.4023888,-0.7632188,-9.825202
17958630,0.001374561,0.0005339903,0.0002378148,-0.3984263,-0.7676862,-9.838562
17978501,0.001510394,0.0002136529,0.0003153393,-0.3991084,-0.7623195,-9.833887
17998506,0.001249974,0.0004156415,0.0004539506,-0.394898,-0.7584621,-9.826047
18018522,0.0008877263,0.0005272329,0.0004924115,-0.3967772,-0.7601786,-9.83362
18038850,0.0006679336,0.0006233412,0.000406611,-0.4032742,-0.7582073,-9.828093
18058408,0.0005635112,0.0006497378,0.0001995145,-0.4136381,-0.7564678,-9.832164
18078526,0.0009764683,0.0002860834,0.0002299073,-0.4138343,-0.7557818,-9.831425
18098472,0.001377747,-0.0003114971,0.0002815122,-0.4124144,-0.758549,-9.826419
18118665,0.001573962,-0.0008918176,0.000149057,-0.4097209,-0.7525713,-9.818328
18138843,0.001927518,-0.0009916129,-8.11717e-05,-0.3958514,-0.7556425,-9.821035
18158475,0.002325899,-0.0007060391,-0.0003853776,-0.3955696,-0.7582729,-9.823251
18178546,0.002085658,0.0002572661,-0.0003401914,-0.3962532,-0.7600927,-9.830638
18198503,0.001833928,0.0007672942,-0.0002577954,-0.4054349,-0.7620862,-9.833883
18218447,0.001583729,0.0006931161,-0.0002859873,-0.4110628,-0.7574245,-9.826156
18238933,0.001556533,0.0002637662,-0.0004282685,-0.4064148,-0.7584525,-9.818994
18258408,0.001706411,3.156392e-05,-0.0004545956,-0.3988182,-0.7585639,-9.823591
18278714,0.002013167,-0.0002779953,-0.0004062147,-0.4023088,-0.7612731,-9.82049
18298432,0.001931896,-0.000112736,-0.0002324127,-0.4088254,-0.7583138,-9.827502
18318497,0.002033856,0.0003159846,-0.0001759891,-0.4188226,-0.7565495,-9.831586
18338823,0.002362709,0.0008378681,-0.0001431464,-0.4123413,-0.7617087,-9.835422
18358402,0.002372968,0.0009397084,-1.815419e-05,-0.406767,-0.7666032,-9.82726
18378465,0.001965831,0.0007338654,-0.0001368059,-0.3998602,-0.769904,-9.817557
18398503,0.001894354,0.0004795175,-0.0002689252,-0.4028065,-0.766789,-9.816171
18418507,0.00227008,0.0002318783,-0.0003493681,-0.4059885,-0.7628892,-9.827331
18439085,0.00257844,2.751788e-05,-0.000271781,-0.4151674,-0.7605104,-9.825723
18458460,0.00257094,-0.0003377562,-0.0001239631,-0.4114464,-0.7597356,-9.820174
18478537,0.00236833,-0.0004995792,-0.000162159,-0.4089547,-0.7564823,-9.824498
18498502,0.002276497,-0.0002443643,-0.0004287728,-0.4121043,-0.7571914,-9.829311
18518487,0.002049194,2.168031e-05,-0.0006472601,-0.4211963,-0.75368,-9.830737
18538845,0.00195365,0.0003695261,-0.0007411591,-0.4118216,-0.7598028,-9.824645
18558482,0.001827466,0.00107884,-0.0008325794,-0.4035352,-0.7632161,-9.820557
18578511,0.001661884,0.001515869,-0.0008734983,-0.4013596,-0.7600358,-9.81549
18598651,0.001850279,0.001247183,-0.0009724367,-0.4022437,-0.7624431,-9.831675
18618464,0.002093425,0.001340887,-0.0008349958,-0.3985981,-0.7615284,-9.833636
18638928,0.002001344,0.001528818,-0.0006182792,-0.3993109,-0.761139,-9.833023
18658461,0.001690769,0.001340534,-0.0004006354,-0.404824,-0.7647753,-9.828506
18678488,0.001515462,0.001249148,-0.0002131296,-0.3992786,-0.7655223,-9.812669
18698435,0.001266329,0.001008545,-0.0001575204,-0.4092664,-0.7647921,-9.819378
18718530,0.0008576754,0.0007739501,-6.042145e-05,-0.409872,-0.7623562,-9.830489
18738873,0.000802986,0.0001388563,-0.0001477102,-0.4019348,-0.7632268,-9.819519
18758633,0.001027864,0.0001983069,-0.0003315601,-0.3967088,-0.7589139,-9.818372
18778468,0.001267679,0.0003506617,-0.0003129549,-0.3945828,-0.7594023,-9.820615
18798511,0.001390607,0.0002627565,-0.0002088936,-0.3956334,-0.7616577,-9.822742
18818531,0.001350217,0.0004938513,-3.057106e-05,-0.3985973,-0.7599364,-9.825271
18838852,0.001304072,0.0005717911,0.0001121145,-0.3995158,-0.760859,-9.837614
18858403,0.00120451,0.000101232,8.973143e-05,-0.4044175,-0.7614039,-9.836963
18878468,0.00122613,3.565182e-05,0.000203312,-0.412971,-0.7608602,-9.831109
18898465,0.001358331,-0.0001462426,0.0001013752,-0.4182589,-0.7663339,-9.821608
18918682,0.001644374,-0.0004753137,2.453864e-05,-0.4052527,-0.7621964,-9.829854
18938857,0.001771247,-0.0004973304,1.215741e-05,-0.4090466,-0.7561532,-9.832257
18958405,0.001859666,0.0002277341,-0.0001230173,-0.404998,-0.7566354,-9.837399
18978520,0.001919958,0.0009487378,-0.0003904504,-0.4054291,-0.7596033,-9.84481
18998496,0.002134157,0.001569347,-0.0004074474,-0.4033073,-0.7596189,-9.841323
19018439,0.00182179,0.001826975,-0.0001819077,-0.4014691,-0.7616681,-9.830669
19038837,0.001291105,0.001062495,-0.0001831508,-0.403251,-0.7629943,-9.824901
19058429,0.001088863,-9.181453e-05,-8.545219e-05,-0.4037357,-0.7664348,-9.823428
19078744,0.00121311,-0.0009271051,-8.360414e-05,-0.3950225,-0.7618971,-9.825222
19098478,0.001586074,-0.001232657,0.0001043595,-0.3976141,-0.7564503,-9.830946
19118481,0.001846996,-0.001515119,0.000271769,-0.4019768,-0.7581573,-9.831652
19138840,0.002206015,-0.001678245,0.0003059467,-0.40625,-0.7599509,-9.827504
19158421,0.002303179,-0.001083095,0.000231605,-0.4074621,-0.7649705,-9.818158
19178537,0.002197954,-0.0005114785,0.0002984233,-0.4141031,-0.7615697,-9.818225
19198481,0.002451257,0.0002144216,0.0002684918,-0.413441,-0.7592933,-9.825684
19218447,0.002650731,0.0005144514,-4.531191e-05,-0.4022215,-0.7555649,-9.822519
19239025,0.002619805,0.0002808873,-0.0003184585,-0.407119,-0.753533,-9.817741
19258489,0.002113855,0.0005775099,-0.0003193743,-0.4041269,-0.7501163,-9.821729
19278505,0.001890257,0.001147302,-0.0002284812,-0.4063765,-0.7492484,-9.833113
19298431,0.002055993,0.0009576008,-0.0001132665,-0.403092,-0.7554097,-9.825424
19318447,0.002134251,0.0008074361,-0.0001748374,-0.4065822,-0.7607273,-9.828421
19338858,0.001828881,6.582229e-05,-0.0001808139,-0.4057258,-0.7571953,-9.824184
19358492,0.001427906,8.753009e-05,-7.658594e-05,-0.4056947,-0.7580361,-9.826539
19378532,0.001526659,0.0002812736,-0.0001171243,-0.4083257,-0.7579146,-9.83319
19398658,0.001528838,0.0008485712,-0.0001128514,-0.4019088,-0.7530636,-9.822366
19418439,0.001444004,0.001298433,-9.173206e-05,-0.3952106,-0.7557636,-9.822652
19438911,0.001346718,0.001373516,3.867986e-05,-0.4008422,-0.7516605,-9.821864
19458497,0.001256079,0.00111834,5.136916e-05,-0.4031977,-0.7508181,-9.830719
19478465,0.001810942,0.0004635132,6.118086e-05,-0.4026934,-0.751771,-9.818996
19498464,0.002389447,-0.0002092664,0.0001565789,-0.4104896,-0.7546198,-9.818698
19518540,0.002823484,-0.0006546056,0.000239353,-0.4134864,-0.7538748,-9.827777
19538872,0.002896898,-0.0007032277,0.0002465717,-0.4062322,-0.7578521,-9.82503
19558674,0.002695309,-0.0005733854,0.0003132308,-0.405901,-0.7636537,-9.814383
19578472,0.002058541,-0.000355775,0.0002263391,-0.4030198,-0.7649356,-9.825054
19598441,0.001642486,0.0001496231,0.0001726712,-0.4174949,-0.7636623,-9.832176
19618512,0.001273146,0.0005768228,0.0001645119,-0.4207842,-0.7592041,-9.825228
19638854,0.001286816,0.0009703787,-6.845248e-05,-0.4196417,-0.7598564,-9.830757
19658442,0.001236022,0.00162674,-0.0001695055,-0.4163099,-0.7557894,-9.831067
19678473,0.001206823,0.001963099,-1.630375e-05,-0.4067761,-0.7537031,-9.830439
19698471,0.001278486,0.001464637,-6.38643e-06,-0.4106734,-0.758107,-9.823597
19718682,0.001304403,0.0009659447,-6.568364e-05,-0.4108306,-0.7600837,-9.8232
19738834,0.001569916,0.0002557072,-0.0001397754,-0.4037841,-0.7605907,-9.826248
19758428,0.001682987,-0.000260243,-2.406827e-05,-0.4055979,-0.7610188,-9.83829
19778559,0.001440486,-0.0005175607,-7.06922e-05,-0.4055954,-0.7606962,-9.828444
19798499,0.001353653,-0.0008187286,-0.0003070559,-0.4152229,-0.7590871,-9.818724
19818425,0.001395464,-0.0006968614,-0.0003294933,-0.4161234,-0.7586178,-9.812657
19838848,0.001709754,-0.0004265648,-0.0001246944,-0.4096461,-0.7585572,-9.812939
19858496,0.0020544,-0.0001272796,-9.01742e-05,-0.4113334,-0.7538658,-9.824046
19878686,0.002427017,0.0002649487,-0.0002719781,-0.413473,-0.7554852,-9.820352
19898432,0.002251076,0.000729973,-0.0003162205,-0.4002205,-0.7550065,-9.822419
19918430,0.002080233,0.0009955207,-0.000295835,-0.3919855,-0.7567139,-9.825465
19938921,0.002154296,0.0009359408,-0.0002487002,-0.4012666,-0.7597099,-9.829077
19958429,0.002350701,0.001206194,-0.000184939,-0.3981609,-0.7598858,-9.831717
19978463,0.002228689,0.001091894,-0.000128226,-0.3972989,-0.7586995,-9.82801
19998518,0.002155684,0.0006359366,-0.0002341293,-0.404899,-0.7615649,-9.823023
20018520,0.002127906,0.0004498541,-0.000248904,-0.4037246,-0.7612452,-9.832399
20039085,0.002311107,0.0001753512,-0.0001191375,-0.4019286,-0.7614691,-9.828134
20058427,0.002351375,0.0003782117,-0.0002325047,-0.3986715,-0.7535695,-9.834872
20078480,0.002203325,0.0002925807,-0.0003579058,-0.400128,-0.7580054,-9.830291
20098504,0.001872319,-6.802355e-05,-0.0003228489,-0.403641,-0.7622957,-9.837218
20118492,0.002079072,-0.000887751,-0.000221249,-0.3992882,-0.7538837,-9.82791
20138841,0.002110815,-0.001313488,-9.369246e-05,-0.4015428,-0.75744,-9.812058
20158419,0.001950399,-0.001232998,8.089036e-05,-0.3939579,-0.7602136,-9.817778
20178526,0.001805884,-0.0007299252,0.000170374,-0.4027763,-0.7592366,-9.824929
20198646,0.001454332,-0.0003388563,0.0002584203,-0.4100951,-0.7530706,-9.822483
20218438,0.001317216,0.0002224314,0.00023766,-0.4105694,-0.7521272,-9.819978
20238901,0.001646664,0.0001520024,0.0002248112,-0.4013768,-0.7639765,-9.820921
20258493,0.002303634,-0.0001021717,-0.0003828035,-0.4000609,-0.6800166,-9.854026
20278491,0.003181281,0.0005345806,7.493269e-05,-0.303525,-0.7052833,-9.849572
20298438,0.01867052,0.001964992,0.02053267,0.1018827,-0.83635,-9.825215
20318457,0.02750627,0.006931666,0.0648612,0.3113706,-0.9653208,-9.347291
20338910,0.03159982,0.01056232,0.1072877,0.5326701,-0.7481104,-9.913762
20358678,0.02479715,0.01264234,0.1240867,0.3782594,-0.2512615,-10.09081
20378485,0.0172921,0.01314704,0.1067331,0.1172883,-0.4515482,-9.872164
20398413,0.02242309,0.003578435,0.071181,0.3613478,-0.6935909,-10.19654
20418514,-0.005666913,-0.03526572,0.05336101,1.208883,-1.299877,-10.01436
20438861,-0.01902751,-0.0321511,0.06956118,2.096003,-1.205583,-9.744917
20458395,-0.02342034,-0.03552986,0.0732895,2.156246,-0.503749,-9.784442
20478458,-0.02612904,-0.01936647,0.04399823,2.176805,-0.2522186,-9.815921
20498472,-0.0249685,-0.008596468,-0.007314954,2.118957,-0.3848876,-9.999514
20518666,-0.01261511,-0.009320663,-0.04800485,2.489573,-1.371394,-10.03564
20538832,-0.01470359,-0.005593138,-0.06311575,2.882316,-1.148965,-9.863791
20558441,-0.0108878,-0.00910445,-0.05287218,2.915402,-1.155195,-9.744246
20578505,-0.009830959,-0.011431,-0.02958489,3.269957,-1.041507,-10.06142
20598453,-0.004141218,-0.004535223,0.004093099,2.702564,-0.9400809,-9.463655
20618455,0.01807163,-0.006326869,0.0447671,3.347612,-1.360295,-10.54443
20638911,0.004852286,-0.01331141,0.08715556,2.779075,-0.8555327,-10.00299
20658509,0.001747757,-0.01776747,0.1380357,3.221245,-0.7390435,-10.27631
20678753,0.004978444,-0.01405949,0.1937583,2.825264,-0.4427177,-9.492472
20698427,-0.002487892,-0.007122306,0.2294935,3.035715,-0.3355702,-10.3079
20718511,-0.007713535,0.001477621,0.2240493,2.242246,-0.4511048,-9.80004
20738856,0.003410298,0.006437537,0.1662908,2.568471,-0.3927619,-11.04167
20758429,-0.02458591,0.006053257,0.08047076,2.359621,-0.2852521,-9.505643
20778474,-0.02266652,0.00152227,0.002612113,2.728336,-0.6840624,-10.39566
20798480,-0.01540464,-0.005666714,-0.0574827,2.977814,-1.154482,-10.2065
20818509,-0.02561052,-0.0154072,-0.0917609,2.795041,-0.9872812,-10.18696
20839075,-0.01664418,-0.02482478,-0.1052049,2.381954,-0.8159016,-9.515729
20858418,-0.008128626,-0.02714076,-0.1089039,3.169712,-1.01986,-10.54309
20878476,-0.01477526,-0.03248004,-0.1051173,2.699844,-1.011201,-9.949701
20898440,-0.01545819,-0.0343268,-0.09895245,2.623021,-0.8627555,-9.703165
20918523,-0.004782526,-0.0316446,-0.0883211,2.205008,-0.8319857,-10.249
20938871,0.007995406,-0.02942894,-0.04973798,1.158898,-0.7795368,-9.736523
20958450,0.02073458,-0.03717367,0.0170503,0.9437965,-1.50373,-10.64875
20978511,0.005375332,-0.02549564,0.1212968,0.6312002,-0.6102608,-8.977833
20998678,0.02142212,0.0164735,0.2166639,3.062162,-0.4297818,-10.71679
21018501,0.02482823,0.03597637,0.250995,2.307479,-1.224626,-9.391852
21038874,0.01094884,0.06669788,0.2357893,3.254344,-0.06331675,-11.04717
21058479,0.02559262,0.05566819,0.1860566,1.592289,-0.6641209,-8.655549
21078559,0.005125966,0.07348293,0.1226368,2.315511,-0.9090517,-11.20321
21098478,-0.005008272,0.02607594,0.04560684,0.6245484,-0.4011903,-10.28567
21118436,-0.02228591,0.06496624,-0.01836861,0.6072209,-0.2650551,-10.4223
21138872,0.008830559,0.07833864,-0.06209539,0.7045741,-0.9630153,-9.67139
21158671,-0.00410544,0.0435591,-0.0674564,1.005597,-0.7890767,-10.29719
21178470,-0.01967552,0.01578063,-0.05762446,1.622727,-1.135987,-9.320575
21198459,-0.0363683,-0.007930381,-0.07516418,2.230593,-0.3392953,-10.02025
21218505,-0.02924006,-0.03533588,-0.1181942,1.693251,-0.4745662,-10.57501
21238853,-0.008917402,-0.08318099,-0.1628027,0.8928446,-1.370965,-11.97132
21258424,-0.03396616,-0.08988305,-0.1902473,-0.05613364,-0.5151696,-8.526087
21278544,-0.03478014,-0.05471795,-0.209472,1.442199,-1.379148,-10.35966
21298475,-0.05029047,-0.04779645,-0.2390815,0.8787723,-0.7544939,-9.404073
21318656,-0.03754876,0.002024302,-0.2898243,1.093809,-1.502372,-10.50669
21338839,-0.004362629,0.02088243,-0.3157053,0.5226337,-1.111576,-9.115376
21358418,0.04359947,0.04161552,-0.3257968,1.660479,-1.577961,-10.53286
21378537,0.02059198,0.03883962,-0.317324,0.8945066,-1.645145,-11.02799
21398478,0.004618416,0.06100024,-0.2911245,1.066439,-1.180663,-9.865119
21418447,0.006757808,0.06304997,-0.259422,1.288942,-2.182399,-10.26051
21438837,-0.0334255,0.02373249,-0.1981183,1.283856,-1.538251,-7.510777
21458495,-0.04314471,-0.02659063,-0.1541442,1.261863,-0.4787126,-10.18651
21478747,-0.01288246,-0.1145268,-0.1316637,0.03342016,-1.264989,-9.817223
21498470,-0.01601751,-0.1130728,-0.1379287,0.3165231,-0.352508,-9.935265
21518444,0.04333442,-0.1263405,-0.1796324,0.4196076,-1.732003,-10.72842
21538877,0.0314244,-0.09843881,-0.2168182,-0.1981301,-0.5102879,-8.637669
21558485,0.037874,-0.01613426,-0.2614108,1.032466,-1.618865,-9.048307
21578469,0.01225349,0.02423691,-0.2891218,0.7506084,-1.485533,-10.53838
21598418,-0.01201868,0.0635232,-0.2819229,1.019202,-1.450387,-9.266759
21618438,-0.01364369,0.04727611,-0.2448705,0.9989076,-1.384649,-10.37895
21639085,-0.03834854,0.009425398,-0.2030628,0.7614412,-1.129642,-11.4107
21658442,-0.08638861,-0.01863723,-0.1700316,0.1907398,-1.066475,-9.156413
21678501,-0.07614321,-0.04272274,-0.1674574,0.3841339,-1.186137,-9.564187
21698426,-0.06180196,-0.05555861,-0.1759905,-0.3848767,-0.9433277,-8.700123
21718529,-0.02386881,-0.01632687,-0.1931931,0.1876957,-1.408409,-10.28486
21738846,0.01221427,-0.02048653,-0.1911776,-0.145021,-0.9953302,-10.10324
21758429,0.003530364,0.00610529,-0.1676556,-0.4418741,-1.355488,-10.25721
21778466,0.02081143,0.02295146,-0.1222132,-0.3252845,-0.9067395,-9.432001
21798652,0.04488833,0.01779275,-0.07940596,-0.3369378,-0.951162,-11.18439
21818460,0.0196132,0.01080457,-0.04174137,-0.4637764,-1.074679,-9.706644
21838842,-0.008065933,-0.00813443,-0.01298095,-0.4416483,-0.432381,-9.27564
21858453,0.011934,0.01660122,-0.00368948,-0.2510998,0.002806806,-10.17706
21878532,0.009437104,0.0376312,0.002054656,-0.7283242,-0.7078152,-10.13454
21898437,-0.001105602,0.04276294,0.005265793,-0.5361699,-0.3544379,-11.39893
21918499,-0.01751659,0.0409304,0.009363701,-0.4835546,-0.9333396,-9.69251
21938845,-0.03074272,0.04191528,0.01556715,-0.3590494,-0.1835466,-9.791976
21958645,-0.004392035,0.02970368,0.02389308,-0.4582094,-0.7961546,-10.01248
21978476,-0.0115476,0.01327204,0.03634822,-0.3307381,-0.03217783,-10.15817
21998496,0.01019432,-0.03018181,0.05511678,-0.4795245,-0.8356469,-9.803435
22018501,-0.01430179,-0.06822678,0.08059237,-0.5315645,-0.5708166,-8.689009
22038833,0.01582214,-0.09278331,0.09810592,0.09401088,-0.8400972,-11.66216
22058419,-0.002356476,-0.08347747,0.1061915,0.01448097,-0.4625796,-9.177124
22078544,0.01861636,-0.04148997,0.09127066,0.4716512,-0.14697,-9.668239
22098462,0.03097066,-0.003760717,0.06306689,-0.1780574,-0.8769839,-9.126671
22118669,0.03947568,0.04173805,0.03732897,0.05110967,-1.033926,-10.47545
22138847,0.04895388,0.06772902,0.01901297,0.3250141,-0.7304515,-10.6756
22158402,0.03963924,0.06018105,-0.003547163,0.1300255,-0.9842358,-9.107119
22178509,-0.01707068,0.04909233,-0.02406797,-0.1276684,-0.3473555,-9.371685
22198489,-0.019206,0.02317762,-0.04345249,-0.0209986,-1.599412,-10.78823
22218445,-0.04090941,0.005431414,-0.05899621,-0.2459043,-0.4180594,-9.409102
22238876,0.006159175,-0.01644172,-0.08231556,-0.01694387,-1.094724,-10.77719
22258479,-0.01534656,-0.008871816,-0.1026191,-0.01319556,-0.4346721,-9.168701
22278670,-0.0006310064,0.01693879,-0.1416734,0.3203595,-0.6161773,-9.237853
22298427,0.04255071,0.01539603,-0.1959778,0.632305,-1.375781,-11.09876
22318449,0.002544089,-0.01661785,-0.2402083,-0.2430844,-1.348418,-8.287491
22338903,-0.03005937,0.00507383,-0.2768666,-0.1686078,-1.479638,-10.17993
22358462,-0.00395341,0.002641974,-0.3053911,-0.1696512,-1.770666,-9.940112
22378442,0.01067473,0.007673797,-0.3077436,-0.07029666,-2.155247,-9.691543
22398413,0.06383517,-0.004030144,-0.2847612,0.04420914,-1.504013,-10.26788
22418454,0.07214483,-0.01402977,-0.2540023,0.1126038,-2.440608,-10.20134
22439064,0.009930193,-0.01016408,-0.2124816,-0.1292991,-1.295181,-9.83559
22458430,0.01091798,0.01630566,-0.1797737,0.3739702,-1.168563,-11.00935
22478450,0.006274749,-0.00193591,-0.1520175,0.07200348,-1.41944,-8.166201
22498462,-0.005607452,-0.04262717,-0.1437316,0.1796141,-0.3764438,-9.58403
22518515,0.01235079,-0.1004083,-0.1606949,0.1357969,-1.136927,-10.99492
22538845,0.008984151,-0.1426821,-0.1775211,-0.4300327,-2.141177,-10.96007
22558439,-0.01798645,-0.1581359,-0.1754509,-0.3225183,-1.481482,-7.378648
22578519,-0.0715548,-0.09578497,-0.1622899,-0.6485402,-0.2465112,-8.549161
22598715,-0.02611283,-0.02887938,-0.1470461,-0.7731777,-1.349936,-10.88242
22618462,-0.02463278,0.06621379,-0.1260075,-0.002552766,-0.288674,-8.17345
22638849,0.01287341,0.1303149,-0.1290576,0.2344959,-0.8896022,-9.151992
22658435,0.05157334,0.089347,-0.1524287,-0.06292451,-1.904474,-13.01765
22678517,0.005976681,0.06892824,-0.1896341,-0.2415182,-0.6789491,-10.17235
22698471,-0.02794039,0.07735233,-0.243077,-0.03412243,-1.762487,-7.753126
22718439,-0.0748815,0.06169945,-0.2836406,-0.3018513,-1.648134,-10.48993
22738793,-0.08006644,0.04300588,-0.2977701,-0.2056078,-2.636289,-10.46109
22758664,-0.09197992,-0.004065602,-0.2783037,-0.2827726,-1.210907,-10.43367
22778484,-0.03452536,-0.0355228,-0.250262,-0.1459615,-1.315209,-9.736567
22798429,-0.01512908,-0.07049543,-0.2202421,0.01635184,-1.779189,-10.4877
22818484,-0.05927779,-0.09460249,-0.1894146,-0.2311055,-1.343208,-10.0912
22838820,-0.06928466,-0.05968395,-0.167825,-0.201985,-0.5287292,-8.637151
22858436,-0.002910714,-0.01771084,-0.1662899,-0.07729976,-2.146326,-10.60325
22878489,-0.02178953,0.03479044,-0.1686137,0.046586,-0.9601388,-9.486165
22898425,0.008640107,0.01762904,-0.1727441,-0.1662008,-1.764474,-11.28249
22918721,-0.05920629,0.00978016,-0.1696035,-0.9713681,-1.264843,-10.66243
22938812,-0.01395282,0.02547132,-0.1932622,-0.5357539,-0.6553009,-9.148349
22958472,0.03180038,0.0535957,-0.2317982,-0.3173525,-1.571642,-9.368007
22978440,0.01948031,0.08817896,-0.2675582,-0.341644,-1.230933,-9.642118
22998448,0.04383967,0.1156221,-0.2987988,0.002227099,-2.098191,-10.63498
23018513,-0.03613706,0.06813397,-0.3008023,-0.3328794,-2.078634,-10.28219
23038841,-0.08032406,0.032534,-0.3010257,-0.01131621,-0.6701643,-8.893896
23058429,-0.0189658,-0.08062643,-0.3054989,-0.1755683,-1.858516,-11.27121
23078651,-0.0331099,-0.131415,-0.3029684,-0.4717415,-1.418601,-8.964514
23098489,-0.02925741,-0.1670811,-0.2956774,-0.5210195,-1.463444,-10.03693
23118507,-0.0256176,-0.1380841,-0.2815987,-0.3768583,-1.266425,-7.993606
23138834,0.006405865,-0.1016549,-0.2739414,0.0174771,-1.417611,-10.5234
23158433,0.02929362,-0.05362272,-0.2660278,-0.1966578,-2.009785,-9.405927
23178457,0.007922543,-0.05099031,-0.2578548,-0.5378698,-1.363364,-10.23943
23198493,-0.005373396,-0.04606578,-0.2573245,-0.146283,-1.43096,-10.43364
23218480,-0.02361162,-0.04984904,-0.2554562,-0.4761704,-1.097934,-8.622057
23238976,0.004665999,-0.05562682,-0.2611633,-0.4021293,-1.79979,-10.07754
23258451,-0.008022646,-0.0441346,-0.2575945,-0.7208719,-2.016821,-10.34715
23278511,0.01036324,-0.02767267,-0.2418101,-0.9470658,-2.012567,-10.26895
23298421,0.01338815,0.009596531,-0.2052254,-0.7091285,-1.641947,-9.099665
23318449,0.05736591,0.0158339,-0.1682564,-0.2062972,-1.664679,-11.44413
23338910,0.02992812,0.01994236,-0.1396637,-0.5281308,-0.8917531,-9.315366
23358441,0.06762539,0.02846319,-0.1482237,-0.2071077,-1.166148,-10.70379
23378463,0.03709889,0.04286971,-0.1812687,-0.2865434,-0.6105133,-9.603069
23398636,0.02200371,0.02659514,-0.221371,-0.2543235,-1.96939,-10.84394
23418478,-0.02057839,0.05305815,-0.2581753,-0.5261245,-1.225934,-10.30045
23438877,-0.005548737,0.07589984,-0.2899872,-0.6258668,-2.785216,-11.05127
23458413,-0.06198077,0.1139983,-0.3028101,-0.423212,-1.215214,-8.654545
23478456,-0.02489462,0.1098026,-0.3107173,-0.1759667,-2.694901,-9.829969
23498496,-0.05173671,0.04981847,-0.295098,-0.6193677,-2.096086,-10.52439
23518460,-0.1097245,-0.05088433,-0.2646303,-0.3229735,-2.560646,-9.922528
23538816,-0.2004291,-0.1065527,-0.222251,-0.4933906,-0.2686104,-8.636874
23558650,-0.1616925,-0.1001168,-0.198387,-0.6753423,-1.41529,-12.70871
23578505,-0.1419149,-0.06715114,-0.1750604,-0.5519019,-0.6603615,-8.382768
23598498,-0.07890022,-0.03568004,-0.1592317,-0.7921562,-1.670866,-9.425205
23618433,0.062614,-0.04013883,-0.1505917,-0.9835313,-1.407537,-11.58747
23638853,0.118201,-0.005231664,-0.145062,-0.6261355,-2.053357,-7.853429
23658500,0.1327096,-0.01617759,-0.125088,-0.3375607,-1.527248,-9.623617
23678514,0.1172312,-0.0553335,-0.09196798,-0.7468199,-1.797942,-11.12045
23698473,0.08777374,-0.04667553,-0.07734671,-0.1333795,-0.1824896,-10.56698
23718649,0.1127282,-0.02945592,-0.1134256,-0.1133685,-0.9750525,-10.02292
23738848,0.06683121,0.006019383,-0.1705674,-0.07820935,-1.009758,-9.068529
23758461,0.02135023,0.00509884,-0.2184672,-0.3482116,-1.802244,-10.3503
23778494,-0.07271061,0.01625445,-0.2507496,-0.7720056,-0.9482484,-9.904688
23798414,-0.07616848,-0.03079323,-0.2703675,-1.520698,-1.304736,-10.34228
23818480,-0.1097042,-0.02263638,-0.2713226,-1.574998,-0.9033485,-9.183191
23838858,-0.07396096,-0.01691364,-0.2560494,-1.111138,-1.05833,-8.954536
23858409,-0.005015016,-0.02345097,-0.2367455,-0.7129669,-1.649014,-10.50717
23878678,0.005144797,-0.02512797,-0.2165819,-0.6191284,-1.302529,-9.047157
23898470,0.02683277,-0.0505376,-0.1978941,-1.6125,-1.860777,-11.01674
23918416,0.02418203,-0.07200656,-0.09332366,-19.68796,-2.40237,-8.671274
23938830,0.1200244,-0.05706124,0.2515122,-21.99629,-2.604595,-8.308646
23958449,0.2541824,-0.04752051,0.7632658,-17.20913,-0.7554702,-10.2319
23978491,0.2961195,0.008338355,1.32085,-15.95965,-3.01052,-9.352194
23998400,0.2876258,0.02625883,1.858919,-14.70617,0.7705418,-9.590065
24018456,0.2332937,0.08242454,2.380358,-10.0227,5.381572,-11.19067
24039087,0.1825029,0.1280819,2.813048,-7.559756,1.913202,-7.129743
24058485,0.09650869,0.2736526,3.201544,-5.323006,5.67075,-10.23339
24078445,0.1419913,0.3531848,3.518955,-6.091712,3.236382,-9.863362
24098433,0.149217,0.3358744,3.789728,-5.835307,6.020722,-13.35365
24118503,0.2233102,0.3070546,3.979576,-6.551148,1.883803,-9.371272
24138843,0.2386234,0.2991118,4.164588,-4.499891,3.784343,-10.95341
24158426,0.2226362,0.2744709,4.294522,-2.388853,5.316181,-12.97489
24178456,0.3685347,0.2427344,4.36063,-2.700811,1.209583,-9.472488
24198600,0.4323433,0.2592318,4.40064,-1.648104,-0.9748133,-7.486935
24218516,0.3230259,0.2916007,4.409319,1.091169,1.99755,-10.86711
24238845,0.3397107,0.2672072,4.284976,2.399454,3.271022,-15.1409
24258396,0.4250608,0.2721312,4.069962,1.071187,0.4524353,-7.177628
24278488,0.4587921,0.2375845,3.837946,-0.2730135,-1.763126,-5.593904
24298514,0.2543997,0.2610235,3.607949,-0.2895073,-2.440179,-7.644851
24318450,0.07557914,0.2750973,3.377703,4.406316,8.199295,-18.5725
24338837,0.03833632,0.1245148,3.052801,1.785706,1.838603,-11.38075
24358690,-0.04764318,0.01753851,2.740661,-0.2126359,0.4319946,-5.731006
24378488,-0.04759058,0.09117883,2.486382,-1.204276,0.4352657,-7.483236
24398425,-0.008027737,0.2123267,2.325875,2.014344,2.258563,-10.55698
24418455,0.05850678,0.2520217,2.196547,2.025253,2.076657,-7.542446
24438825,0.1556938,0.2184907,2.08554,1.22618,0.4497384,-10.59382
24458497,0.1604925,0.2073752,1.988847,1.715603,1.745533,-11.02762
24478533,0.1151175,0.1843701,1.874663,0.3952687,0.220484,-8.485995
24498438,0.1293501,0.1623108,1.770375,0.9848831,1.224018,-10.60512
24518725,0.1653071,0.1082918,1.662742,1.823668,2.408846,-12.20237
24538908,0.1364481,0.08464668,1.545195,0.3100978,0.2742862,-9.153029
24558422,0.09444514,0.08784641,1.450291,0.4510646,1.774759,-11.46637
24578453,0.092285,0.06322171,1.403803,0.4456277,1.508755,-10.8219
24598410,0.06247258,0.07089447,1.379143,0.2721771,0.2675404,-8.686749
24618515,0.1109219,0.04871964,1.380892,1.616567,1.893512,-11.67308
24638823,0.09725367,0.03864382,1.378682,0.494097,0.3062988,-9.193617
24658423,0.07993906,0.0491312,1.389157,0.8600775,1.164878,-11.69503
24678670,0.09947122,0.04360758,1.381515,0.6722727,0.5474498,-9.641965
24698416,0.09266043,0.05149784,1.359835,0.7096402,0.9820451,-9.638784
24718506,0.1495892,0.03610546,1.319581,1.075569,0.9169346,-10.78862
24738845,0.1398442,0.0616046,1.256931,0.8712348,0.09243203,-9.620271
24758424,0.122191,0.08623324,1.222379,0.9831787,0.3150669,-10.52897
24778485,0.1240212,0.09605584,1.244209,1.075204,0.5712764,-10.50482
24798482,0.1209683,0.09082958,1.304,0.9925686,0.6476758,-10.16565
24818490,0.1125871,0.09720737,1.387394,1.131646,0.9205171,-10.29212
24839007,0.1206374,0.1019058,1.44072,1.103485,1.050748,-10.18229
24858421,0.111791,0.09817375,1.443931,0.5667962,-0.2411402,-8.982672
24878531,0.08649106,0.08793333,1.40784,0.08791362,-0.2685223,-10.74436
24898479,0.04894499,0.08068581,1.331451,-0.2119392,-0.6024278,-9.852222
24918474,0.0452697,0.06302691,1.210159,-0.09859805,-0.7469729,-10.32796
24938834,0.008612921,0.03406003,1.058421,-0.04312694,-0.4072056,-9.842301
24958424,0.007794443,0.01914794,0.8734709,-0.2312109,-0.5083746,-9.427795
24978547,0.001322714,0.02293139,0.6790748,-0.4138365,-1.365168,-9.984527
24998633,-0.007973494,0.01361679,0.4936222,-0.5032157,-1.434617,-10.28575
25018464,-0.01319621,0.007393191,0.3373104,-0.9533311,-1.759006,-9.342982
25038842,0.005347466,0.0200901,0.2028026,-0.5823923,-1.220901,-9.79982
25058490,0.01296789,0.01233902,0.0921072,-0.7048354,-1.327776,-10.81189
25078524,-0.01326209,0.004152152,-0.005655791,-0.7823218,-0.6746939,-9.770525
25098421,-0.006100751,-0.001381093,-0.07114779,-1.270224,-0.5186748,-9.70399
25118491,0.003037292,0.008255004,-0.1032452,-1.122354,-1.006131,-9.937722
25138838,0.006592902,0.01629242,-0.1142554,-0.9747834,-0.7688457,-9.626502
25158651,0.02228492,0.01805262,-0.1101471,-0.9690961,-0.7438239,-10.09268
25178506,0.01075777,0.01432429,-0.09902541,-0.8278277,-0.9085344,-9.736123
25198480,0.008621049,0.001272876,-0.09137285,-0.933309,-0.5639661,-9.812242
25218497,0.005595068,-0.004215027,-0.08081499,-1.052445,-0.9246238,-9.792973
25238850,-0.002589981,-0.0007647088,-0.07057653,-1.020335,-0.7097656,-9.653028
25258444,0.0002789187,-0.003163878,-0.06349649,-0.8190947,-0.8778427,-10.37549
25278523,-0.01260222,-0.008930438,-0.06501807,-0.8170457,-0.5176113,-10.11487
25298479,-0.01752918,-0.01632117,-0.07207748,-0.9166215,-0.5228009,-9.555297
25318667,-0.01836263,-0.02026966,-0.08151849,-0.8911803,-0.8079495,-9.966862
25338853,-0.0165685,-0.02068677,-0.09386858,-0.8850065,-0.5232081,-9.781313
25358492,-0.01225257,-0.0196184,-0.09979908,-1.091351,-0.9848687,-9.946534
25378543,-0.01955819,-0.01020067,-0.1027313,-0.9003361,-0.5896463,-9.292315
25398448,-0.0007376037,-0.009692547,-0.1027415,-0.9204004,-0.6769781,-10.27334
25418444,-0.01149627,-0.01295399,-0.1004738,-1.033765,-1.008771,-10.12022
25438933,-0.01555117,-0.01550494,-0.095154,-1.174652,-0.6311047,-9.620021
25458449,0.005579766,-0.01774705,-0.08265474,-1.392664,-0.7996532,-10.33695
25478687,-0.006105932,-0.01061354,-0.06200456,-1.133844,-0.8640963,-9.65468
25498461,-0.004106721,-0.01144321,-0.04677367,-0.9947091,-0.4777779,-9.84294
25518535,0.006157493,-0.008761566,-0.03700455,-0.9768006,-0.4092658,-9.851843
25538848,-0.002443473,-0.01410706,-0.03009593,-0.8746834,-0.5310955,-10.04331
25558434,-0.0006739825,-0.01269267,-0.03360579,-0.9522139,-0.6995393,-10.07662
25578534,-0.01591612,-0.01336991,-0.04233401,-0.8946697,-0.5464982,-9.921721
25598489,-0.01567432,-0.01282611,-0.06134157,-1.034458,-1.011707,-10.40153
25618485,-0.02813013,-0.01730964,-0.07410011,-1.291485,-1.122059,-9.695557
25639031,-0.02669057,-0.02060127,-0.07466059,-1.366606,-1.062782,-9.754704
25658452,-0.0275281,-0.01634453,-0.06214396,-1.140402,-0.7352579,-9.692044
25678531,-0.01754636,-0.01244951,-0.04519606,-1.072379,-0.4991054,-9.731225
25698494,-0.003666442,-0.009898961,-0.02705185,-1.019397,-0.7388203,-9.916048
25718511,8.959461e-05,-0.005968055,-0.01273778,-1.066976,-0.7695913,-9.467427
25738851,-0.003872922,-0.001254201,0.0006737534,-0.9970422,-0.5395806,-9.619285
25758490,-0.003386184,0.0007293582,0.007576071,-0.9408676,-0.4569874,-9.901033
25778514,7.790553e-05,0.003799324,0.005893908,-0.8364756,-0.2745115,-9.854651
25798649,0.007314107,0.00756572,-0.004975405,-0.7150239,-0.1516295,-9.612364
25818463,0.02061365,0.01082933,-0.02619552,-0.8455161,-0.3327695,-10.24873
25838882,0.003669856,0.01123986,-0.05508306,-0.7207578,-0.4611973,-9.748334
25858470,0.005301881,0.003837082,-0.09205764,-1.008,-0.5750577,-9.805877
25878451,0.00128983,0.008798244,-0.1234921,-0.9389319,-0.9096949,-9.908042
25898473,-0.001787116,0.005082386,-0.1390557,-1.231068,-1.319473,-9.7809
25918522,-0.0008333922,0.005365636,-0.1329943,-1.310979,-1.204281,-9.781166
25938864,-0.001917379,0.009134606,-0.1024644,-1.293456,-0.9987248,-9.792759
25958651,0.01410447,0.01301315,-0.06223819,-1.13488,-0.6185582,-10.08492
25978466,0.02573004,0.01942258,-0.02202426,-0.8314148,-0.5121798,-10.03354
25998449,0.03063325,0.02031025,0.003740803,-0.6452264,-0.2939933,-10.00891
26018538,0.01796367,0.0131707,0.009707338,-0.6415021,-0.5362483,-9.845087
26038858,0.007983926,0.01611767,-0.007172035,-0.674728,-0.1522149,-9.474916
26058433,0.005643425,0.01498606,-0.03328481,-0.7043495,-0.6250809,-10.05873
26078545,-0.002619296,0.007394529,-0.06386612,-1.00853,-0.8146771,-10.16702
26098477,-0.01346821,0.0005497864,-0.0826526,-1.193357,-0.9375291,-9.648695
26118680,-0.012965,-0.002946615,-0.08334566,-1.180652,-1.000824,-9.659916
26138873,-0.008374277,0.002354489,-0.07091816,-1.075267,-0.8049969,-9.771649
26158465,0.001550476,0.007375457,-0.04670714,-1.128969,-0.7824811,-9.786
26178524,0.01473792,0.01224489,-0.01855684,-1.004219,-0.731708,-9.658502
26198415,0.02258166,0.01725519,0.007379875,-0.7398692,-0.724999,-9.937427
26218445,0.01802729,0.01761701,0.02075337,-0.6678038,-0.556632,-9.775571
26238850,0.01958574,0.01631055,0.02301253,-0.78932,-0.6064216,-9.934968
26258490,0.01031111,0.01272642,0.01618506,-0.6720197,-0.5740477,-9.783004
26278784,0.002031357,0.008827558,0.00179313,-0.711475,-0.6666654,-9.870348
26298469,-0.009227774,0.007007013,-0.01859943,-0.6452578,-0.4894797,-9.783771
26318448,-0.02054781,0.001593879,-0.03890866,-0.7198705,-0.6618869,-9.963593
26338890,-0.02587967,-0.004227297,-0.05742314,-0.919479,-0.7014657,-9.788895
26358492,-0.02589362,-0.004697861,-0.06251543,-0.9867669,-0.846716,-9.696532
26378532,-0.01481248,-0.005580209,-0.05311143,-0.9686685,-0.8724841,-9.891106
26398450,-0.00610886,-0.003584007,-0.03848699,-0.8745365,-0.6545368,-9.824957
26418472,-0.00153335,-0.002052755,-0.02359961,-0.7481996,-0.6746092,-9.698924
26439078,0.001778715,-0.003491819,-0.01508585,-0.8191325,-0.5563747,-9.767304
26458477,0.003115259,-0.00296914,-0.01133046,-0.7890118,-0.5954217,-9.830589
26478492,-0.001369139,-0.002160722,-0.01305911,-0.7176707,-0.6086648,-9.728189
26498442,-0.001375701,-0.003625916,-0.01801968,-0.7535729,-0.6545934,-9.906357
26518447,-0.008721654,-0.004340359,-0.02457388,-0.7466688,-0.5848122,-9.818409
26538907,-0.01174838,-0.005918945,-0.03068772,-0.8573899,-0.6498845,-9.779864
26558510,-0.01015481,-0.006238538,-0.03252726,-0.9934374,-0.6854742,-9.741734
26578478,-0.003635265,-0.00536425,-0.02594272,-1.019665,-0.8060406,-9.830408
26598677,0.002273324,-0.003987895,-0.01703556,-0.9315821,-0.6296521,-9.798701
26618508,0.004109068,-0.002892238,-0.01136675,-0.7772331,-0.55086,-9.841969
26638847,0.002579654,-0.002167151,-0.0137556,-0.7407469,-0.4836021,-9.657668
26658410,0.006666774,0.003016189,-0.02270523,-0.7408438,-0.5799441,-9.818035
26678500,0.004790829,0.005992089,-0.03042704,-0.799695,-0.8584949,-9.859316
26698505,0.003954549,0.007454764,-0.03059902,-0.8848268,-0.7533212,-9.761168
26718496,0.004870276,0.007472328,-0.0215737,-0.8557212,-0.9660997,-9.847701
26738845,0.005267938,0.005651806,-0.009430118,-0.902256,-0.6427835,-9.781039
26758641,0.004058041,0.004886765,0.002419509,-0.8023205,-0.5087757,-9.795422
26778480,0.003295063,0.002871381,0.005421051,-0.7180674,-0.5028841,-9.814749
26798502,0.0002280307,0.0008674167,0.001834765,-0.7780429,-0.587164,-9.852222
26818500,-0.004493575,-0.0003136176,-0.005934371,-0.821309,-0.6309443,-9.75793
26838856,-0.006027281,-0.001330933,-0.01035991,-0.8433453,-0.7726216,-9.822408
26858478,-0.005030204,-0.001670428,-0.01016816,-0.8676854,-0.8212695,-9.798371
26878544,-0.003874615,-0.0002500989,-0.007366916,-0.8163857,-0.6245916,-9.772333
26898436,-0.002433486,-9.117431e-06,-0.002660412,-0.703074,-0.6958057,-9.816533
26918683,-0.001619293,-0.0006423183,-0.002366223,-0.6948752,-0.5531911,-9.818212
26938860,-0.002192969,-0.001189301,-0.004655819,-0.8154624,-0.6599755,-9.828948
26958474,-0.004433115,-0.001994648,-0.008772615,-0.8358143,-0.7173597,-9.794269
26978505,-0.005413571,-0.00342003,-0.01343406,-0.8902781,-0.6185503,-9.795351
26998440,-0.004523385,-0.002791859,-0.01228795,-0.9038106,-0.7572287,-9.809416
27018467,-0.00141468,-0.001896782,-0.006329662,-0.9456493,-0.7656217,-9.804665
27038865,0.002189605,0.0003112401,0.001900546,-0.8855745,-0.71672,-9.785718
27058416,0.004799407,0.001776063,0.007375732,-0.7527544,-0.6325582,-9.815082
27078674,0.005842356,0.001480439,0.007109252,-0.5923284,-0.6668103,-9.847876
27098496,0.003452201,0.001017602,0.002058604,-0.4804546,-0.6877754,-9.828541
27118510,0.001224678,0.000234388,-0.004584533,-0.4033327,-0.7391534,-9.816441
27138851,-0.0003028915,-8.723953e-05,-0.007728436,-0.383756,-0.769106,-9.818904
27158418,0.0008635415,0.0005345825,-0.005234666,-0.3421943,-0.7812863,-9.821966
27178541,0.003041543,0.001584128,0.000518975,-0.3115152,-0.7568806,-9.820735
27198510,0.005941363,0.003012626,0.006588144,-0.2788577,-0.7423347,-9.836123
27218526,0.007466465,0.003492957,0.009572571,-0.278584,-0.7318719,-9.854681
27239089,0.006731368,0.003076287,0.008522398,-0.3094447,-0.7249206,-9.846993
27258442,0.004607338,0.001789341,0.003721924,-0.4022944,-0.7156222,-9.844578
27278525,0.001196439,0.000720821,-0.003214002,-0.5195574,-0.7017293,-9.827682
27298457,-0.001627141,-0.0003351065,-0.008982043,-0.5507526,-0.7463628,-9.796855
27318463,-0.002884379,5.865421e-05,-0.01031207,-0.5389842,-0.7630383,-9.790742
27338848,-0.001954056,0.0009958609,-0.006939601,-0.4583467,-0.7639454,-9.806903
27358483,0.0007572201,0.001673352,-0.001745251,-0.3878361,-0.7385308,-9.832173
27378509,0.003053193,0.002464386,0.002551359,-0.3337409,-0.7316912,-9.841371
27398662,0.003811555,0.002439871,0.003418382,-0.282744,-0.7293216,-9.846096
27418457,0.002743836,0.001851069,0.001656465,-0.2776852,-0.7478558,-9.833097
27438905,0.002048064,0.0008090445,-0.0003248632,-0.3254003,-0.7642615,-9.824819
27458471,0.001930875,0.0005131927,-0.0008920793,-0.3591664,-0.7652298,-9.822783
27478482,0.001990325,0.000884784,-2.60287e-05,-0.3583629,-0.7520261,-9.821328
27498447,0.002638477,0.00111219,0.0007261958,-0.3925526,-0.7391765,-9.820825
27518481,0.002473006,0.001404215,0.0005117619,-0.4610949,-0.7360142,-9.819456
27538910,0.002202873,0.001507109,-2.874808e-05,-0.5075868,-0.7462801,-9.811457
27558648,0.001661439,0.001861478,-0.0002235239,-0.5084156,-0.7531737,-9.808566
27578512,0.001457179,0.001858041,-0.0002675537,-0.4519634,-0.7516468,-9.818187
27598437,0.00159235,0.001445236,-0.0003406598,-0.3902507,-0.7426433,-9.837873
27618519,0.001237907,0.001193343,-0.0004350377,-0.3488764,-0.750989,-9.833969
27638840,0.001182977,0.0008175811,-0.0004540901,-0.3433809,-0.7538405,-9.832009
27658417,0.001034471,0.001054229,-0.0003490682,-0.3599225,-0.7535089,-9.834513
27678484,0.001576678,0.0008423999,-0.0002460322,-0.391176,-0.7524154,-9.827907
27698501,0.001853429,0.0004457084,-0.0003254322,-0.4432228,-0.7496803,-9.823495
27718667,0.001767775,0.0003519509,-0.0003968668,-0.4703701,-0.7480113,-9.810104
27738847,0.002180123,0.0001821411,-0.0005356577,-0.4696028,-0.7451255,-9.831738
27758423,0.002439205,0.000716243,-0.0005538844,-0.451623,-0.7413449,-9.828922
27778457,0.002904835,0.0005268251,-0.0006297416,-0.4070224,-0.7461977,-9.823982
27798508,0.002806046,0.0004994267,-0.0007303023,-0.3810531,-0.752289,-9.825258
27818501,0.002852837,0.0001783799,-0.0005850121,-0.391213,-0.7410586,-9.826991
27838831,0.003724197,-0.0007654809,-0.0010849,-0.4264885,-0.7327,-9.837268
27858435,0.002165361,7.899744e-05,-0.001684048,-0.4537468,-0.7517698,-9.815225
27878690,-0.001268515,0.001997564,-0.001788756,-0.4714108,-0.7505524,-9.82813
27898502,-0.006490852,0.004994211,-0.001679307,-0.4757289,-0.7508116,-9.814651
27918488,-0.01077666,0.007637062,-0.002129793,-0.4754694,-0.7431936,-9.825753
27938875,-0.01200052,0.008189472,-0.002307254,-0.4652019,-0.7561968,-9.81542
27958478,-0.01052109,0.007703964,-0.00153043,-0.4482311,-0.7519938,-9.81456
27978527,-0.00764191,0.007003076,1.5462e-05,-0.409678,-0.7429038,-9.823396
27998439,-0.004718456,0.006078161,0.001298088,-0.3480929,-0.7415303,-9.828193
28018440,-0.002335467,0.004818079,0.002275502,-0.3190902,-0.7336798,-9.831756
28039004,-0.0003686442,0.003878754,0.002595133,-0.2728582,-0.7289152,-9.825526
28058504,0.0009254533,0.003262847,0.002319664,-0.2653648,-0.726693,-9.83884
28078484,0.001701651,0.002018041,0.001468889,-0.2965076,-0.7257384,-9.834066
28098432,0.001833533,0.0007224935,0.0004114123,-0.3643137,-0.7250295,-9.832301
28118541,0.001559339,-0.0001660104,-2.527784e-05,-0.4269499,-0.7006539,-9.829909
28138857,0.001312355,-0.0001133766,0.0001094779,-0.4844519,-0.6869551,-9.823825
28158447,0.0009033234,0.0002982664,0.0006215224,-0.5228581,-0.6769955,-9.812609
28178478,0.000489431,0.0004328813,0.0004940487,-0.5538856,-0.6529728,-9.788369
28198706,0.0001268003,0.0007439892,2.854419e-05,-0.5352486,-0.6788921,-9.802359
28218483,-7.370685e-05,0.00124784,-0.0003985253,-0.4573426,-0.6757696,-9.828756
28238848,-0.0002580202,0.001514884,-0.0003685405,-0.3677769,-0.690582,-9.82962
28258438,0.0001682079,0.001648678,-0.0002040797,-0.3041298,-0.7170977,-9.828635
28278466,0.0003370814,0.001805066,7.131431e-06,-0.2464215,-0.7412621,-9.840652
28298524,0.0008322012,0.0017301,0.0003641169,-0.2152643,-0.757474,-9.831664
28318492,0.001233445,0.00129116,0.000447823,-0.2804713,-0.7501518,-9.828926
28338850,0.001706513,0.0009182164,0.0002057195,-0.3783988,-0.743387,-9.827158
28358696,0.001280882,0.0008060889,-0.0002345905,-0.4711644,-0.7319871,-9.81686
28378519,0.0004467392,0.0008716187,-0.0006982088,-0.5243451,-0.7422558,-9.807938
28398436,3.031393e-05,0.001120647,-0.0008001135,-0.5199932,-0.7486686,-9.820919
28418440,-5.125921e-05,0.001126756,-0.0002926033,-0.4784327,-0.7429783,-9.824994
28438883,0.0004217995,0.0007815727,0.00075957,-0.4081919,-0.7436755,-9.822944
28458468,0.0009651127,0.0004868484,0.001274363,-0.33336,-0.7343275,-9.836011
28478491,0.001251679,6.134363e-05,0.0007857639,-0.2839646,-0.7375903,-9.831549
28498428,0.001192653,-0.0001301039,-9.001701e-05,-0.3221566,-0.747367,-9.820466
28518652,0.001322141,-0.0001460186,-0.0002367661,-0.3863998,-0.7529946,-9.829777
28538890,0.001463708,0.000496939,0.0002114996,-0.4124993,-0.7422582,-9.824312
28558435,0.001612527,0.0005863553,0.0003671732,-0.4354604,-0.7332311,-9.828163
28578495,0.001578637,0.00027173,-0.0001541714,-0.4489026,-0.7413763,-9.819232
28598439,0.001232333,6.502752e-06,-0.0006415961,-0.4491814,-0.74611,-9.813089
28618509,0.006802377,-0.00283644,-0.0004030927,-0.4284817,-0.7225654,-9.781509
28638842,0.01130874,-0.004771927,0.0001204536,-0.4053067,-0.7129223,-9.825664
28658437,0.01287149,-0.005323283,0.0007791333,-0.3845262,-0.7118417,-9.833345
28678728,0.02091332,-0.009492824,0.001115149,-0.3409872,-0.6794782,-9.771317
28698486,0.0282269,-0.01317367,0.0008521258,-0.3828442,-0.7438055,-9.831981
28718504,0.02825944,-0.01379953,0.0009816646,-0.4490636,-0.7569776,-9.84784
28738862,0.01898046,-0.009365613,0.001108692,-0.4685588,-0.7216938,-9.831698
28758444,0.01456385,-0.006626324,0.0009100765,-0.4225247,-0.7479736,-9.846249
28778553,0.0007637358,0.0002032038,-8.998295e-05,-0.3850451,-0.7334734,-9.873996
28798497,-0.02327963,0.0126337,-0.0003822196,-0.3838098,-0.6712322,-9.828472
28818446,-0.0282207,0.01558635,-0.0006867326,-0.36132,-0.6545811,-9.732469
28839034,-0.01668973,0.009138864,-0.001166038,-0.4428677,-0.7144707,-9.841162
28858506,-0.01094223,0.006228839,-0.001454076,-0.4429128,-0.7169573,-9.823997
28878540,0.002895808,-0.0008561251,-0.002451189,-0.4288609,-0.6911854,-9.756709
28898439,0.03444459,-0.01741279,-0.003149825,-0.4436758,-0.7267216,-9.816657
28918457,0.05923148,-0.02986503,-0.002862004,-0.4205589,-0.741934,-9.808716
28938930,0.07298659,-0.03731189,-0.002606938,-0.3967061,-0.7634275,-9.858424
28958444,0.06926986,-0.03593221,-0.002558717,-0.4300057,-0.786378,-9.915898
28978487,0.04132403,-0.0209743,-0.002083108,-0.4700335,-0.7796644,-9.858294
28998643,0.00289489,-8.837541e-05,-0.000902875,-0.565024,-0.7643437,-9.851498
29018513,-0.02840005,0.01633962,0.0008642458,-0.5186623,-0.7106553,-9.753366
29038867,-0.02356742,0.01382686,0.002074746,-0.4055123,-0.6956052,-9.734238
29058436,-0.004820839,0.003869067,0.001654939,-0.397352,-0.7549403,-9.892637
29078474,-0.0006911486,0.001908226,0.000698685,-0.3827797,-0.7539523,-9.870636
29098470,-0.004791442,0.004823938,0.000800367,-0.3985128,-0.763127,-9.852239
29118528,-0.01528012,0.01123993,0.001509152,-0.3901463,-0.7181776,-9.778781
29138847,-0.01635556,0.01181293,0.001992688,-0.4017844,-0.7248993,-9.809341
29158663,-0.01083161,0.005411336,0.001116476,-0.4204021,-0.6933001,-9.889857
29178539,-0.01327915,0.00542549,0.001290189,-0.371159,-0.7050605,-9.813914
29198508,-0.01179255,0.002673402,0.001406909,-0.4054375,-0.732788,-9.793762
29218453,-0.0005312986,-0.005640284,0.002700802,-0.4709136,-0.7097371,-9.767698
29238878,0.02479325,-0.02279305,0.004532148,-0.4857379,-0.7006578,-9.720108
29258492,0.05988125,-0.04587468,0.005399877,-0.5013888,-0.7299164,-9.828104
29278512,0.0847532,-0.06002622,0.004806404,-0.4821447,-0.7834035,-9.92751
29298430,0.08367021,-0.05491039,0.003029523,-0.4566135,-0.8081658,-9.934011
29318679,0.05481563,-0.03115059,0.001699537,-0.4673322,-0.7971526,-9.87832
29338901,0.01452366,-0.002581429,0.0007044042,-0.4740268,-0.7622428,-9.783619
29358489,-0.01024742,0.01468635,-0.0001754603,-0.4878016,-0.7347106,-9.727774
29378474,-0.008008873,0.01432312,-0.0008378432,-0.4911526,-0.7334779,-9.756714
29398448,0.00394823,0.006714206,-0.001398241,-0.4932656,-0.7799331,-9.831597
29418540,0.008282991,0.003024629,-0.001710878,-0.4566151,-0.7826831,-9.856374
29438850,0.00391082,0.004818175,-0.001703228,-0.4196863,-0.787173,-9.840235
29458427,-0.002624583,0.007408767,-0.001709152,-0.4220041,-0.7616078,-9.811949
29478733,-0.0009717339,0.005180854,-0.00146577,-0.4393477,-0.743592,-9.77647
29498493,0.01309116,-0.003851696,-0.001618173,-0.4540877,-0.7587099,-9.809609
29518504,0.03009121,-0.01397805,-0.002271083,-0.4572945,-0.7803127,-9.845316
29538855,0.03846813,-0.01869433,-0.002716461,-0.4519929,-0.7917423,-9.842928
29558436,0.03816527,-0.01871047,-0.003270602,-0.4692166,-0.7880641,-9.825683
29578440,0.03408773,-0.01727271,-0.003719115,-0.512159,-0.7827092,-9.80522
29598492,0.03253174,-0.01688062,-0.003800191,-0.546491,-0.7811353,-9.802605
29618497,0.04180014,-0.021889,-0.003687752,-0.5259941,-0.7737149,-9.78021
29639092,0.06133955,-0.03150485,-0.003417847,-0.5033019,-0.7915938,-9.79451
29658444,0.07670018,-0.0395995,-0.00336127,-0.5180895,-0.8206081,-9.833971
29678539,0.07732423,-0.03930507,-0.003164031,-0.5438269,-0.8331669,-9.84958
29698482,0.06171795,-0.03047299,-0.002731897,-0.5454367,-0.8282736,-9.837456
29718526,0.02557129,-0.01170549,-0.003258511,-0.516959,-0.7451165,-9.792304
29738855,0.001946206,0.001481778,-0.002072939,-0.5031751,-0.7643542,-9.774886
29758500,-0.005148869,0.004913318,-0.001567172,-0.5242307,-0.7984886,-9.766057
29778523,-0.00301934,0.003930744,-0.0008951664,-0.5499697,-0.8481436,-9.813678
29798656,-0.01290104,0.008560003,-0.0009350518,-0.5604914,-0.8444448,-9.871719
29818462,-0.04675609,0.02579824,-0.0007424493,-0.5338059,-0.7785224,-9.890919
29838880,-0.09422532,0.05132517,0.002760634,-0.4792582,-0.7290022,-9.816905
29858526,-0.12551,0.06713992,0.005684151,-0.4357024,-0.7040144,-9.757054
29878535,-0.1143222,0.06241957,0.006854815,-0.4678169,-0.7711126,-9.824716
29898450,-0.1054335,0.05849538,0.006763927,-0.4180934,-0.7425472,-9.792785
29918447,-0.0711294,0.04203214,0.005788979,-0.3822455,-0.704211,-9.774216
29938913,-0.02938643,0.02132244,0.003285695,-0.4287163,-0.7321119,-9.815227
29958655,0.0008779282,0.00593018,0.001148165,-0.4893239,-0.7688096,-9.858197
29978470,0.01374085,-0.001545337,-0.0001312639,-0.4871073,-0.7756071,-9.826958
29998429,0.01784243,-0.004787355,-0.0008086205,-0.4485599,-0.775545,-9.815804
30018518,0.01704383,-0.00558811,-0.0009964164,-0.4231431,-0.7693012,-9.822023
30038843,0.01347088,-0.004893732,-0.001145981,-0.4296578,-0.7721044,-9.824681
30058457,0.009590643,-0.003821636,-0.00133991,-0.4597254,-0.774336,-9.82917
30078542,0.006336266,-0.002960097,-0.0007572487,-0.4587978,-0.7776804,-9.82043
30098433,0.004069541,-0.001448503,0.0001716765,-0.4352117,-0.7717057,-9.823943
30118717,0.002649199,-0.0003036321,0.0007355565,-0.4235902,-0.7713388,-9.828876
30138855,0.00146445,0.0009939292,0.0007269582,-0.4497589,-0.7703505,-9.831814
